"","trial","lum1","lum2","c1","c2","im","thisN","thisTrialN","thisRepN","resp.keys","resp.rt","resp.duration","trials.thisRepN","trials.thisTrialN","trials.thisN","trials.thisIndex","thisRow.t","notes","instruct.started","ready.started","instrText.started","instruct.stopped","trial.started","resp.started","image.started","trial.stopped","trials.resp.keys","trials.resp.rt","trials.resp.duration","thanks.started","thanksText.started","thanks.stopped","session","participant","date","expName","expVersion","psychopyVersion","frameRate","expStart","X"
"1",NA,NA,NA,NA,NA,"",NA,NA,NA,"",NA,"",NA,NA,NA,NA,NA,NA,0.00673317909240723,0.0130553245544434,0.0130553245544434,0.798285722732544,NA,NA,NA,NA,"",NA,"",NA,NA,NA,1,"GA1","2025-08-20_14h51.53.824","mlcm_experiment_whites_illusion",NA,"2025.1.1",59.9772348981004,"2025-08-20 14h51.58.443192 +0200",NA
"2",0,0.42,0.5,1,1,"imgs/white_0.42_0.5_1.0_1.0.png",0,0,0,"right",1.07456517219543,"None",0,0,0,0,0.831866264343262,NA,NA,NA,NA,NA,0.824259519577026,1.31227397918701,1.31227397918701,2.39649343490601,"right",1.07456517219543,"None",NA,NA,NA,1,"GA1","2025-08-20_14h51.53.824","mlcm_experiment_whites_illusion",NA,"2025.1.1",59.9772348981004,"2025-08-20 14h51.58.443192 +0200",NA
"3",1,0.25,0.58,0,1,"imgs/white_0.25_0.58_0.0_1.0.png",1,1,0,"right",0.828112125396729,"None",0,1,1,1,2.41530752182007,NA,NA,NA,NA,NA,2.40949010848999,2.91072964668274,2.91072964668274,3.74673080444336,"right",0.828112125396729,"None",NA,NA,NA,1,"GA1","2025-08-20_14h51.53.824","mlcm_experiment_whites_illusion",NA,"2025.1.1",59.9772348981004,"2025-08-20 14h51.58.443192 +0200",NA
"4",2,0.33,0.67,0,0,"imgs/white_0.33_0.67_0.0_0.0.png",2,2,0,"right",0.588990449905396,"None",0,2,2,2,3.76094889640808,NA,NA,NA,NA,NA,3.75412631034851,4.26168274879456,4.26168274879456,4.86717224121094,"right",0.588990449905396,"None",NA,NA,NA,1,"GA1","2025-08-20_14h51.53.824","mlcm_experiment_whites_illusion",NA,"2025.1.1",59.9772348981004,"2025-08-20 14h51.58.443192 +0200",NA
"5",3,0.58,0.33,1,1,"imgs/white_0.58_0.33_1.0_1.0.png",3,3,0,"left",0.727148294448853,"None",0,3,3,3,4.88041639328003,NA,NA,NA,NA,NA,4.87308764457703,5.37967658042908,5.37967658042908,6.11845803260803,"left",0.727148294448853,"None",NA,NA,NA,1,"GA1","2025-08-20_14h51.53.824","mlcm_experiment_whites_illusion",NA,"2025.1.1",59.9772348981004,"2025-08-20 14h51.58.443192 +0200",NA
"6",4,0.25,0.75,0,1,"imgs/white_0.25_0.75_0.0_1.0.png",4,4,0,"right",0.660500764846802,"None",0,4,4,4,6.13658571243286,NA,NA,NA,NA,NA,6.13306903839111,6.63064074516296,6.63064074516296,7.30258584022522,"right",0.660500764846802,"None",NA,NA,NA,1,"GA1","2025-08-20_14h51.53.824","mlcm_experiment_whites_illusion",NA,"2025.1.1",59.9772348981004,"2025-08-20 14h51.58.443192 +0200",NA
"7",5,0.67,0.42,1,1,"imgs/white_0.67_0.42_1.0_1.0.png",5,5,0,"left",0.676056623458862,"None",0,5,5,5,7.31586241722107,NA,NA,NA,NA,NA,7.30986833572388,7.81490135192871,7.81490135192871,8.503582239151,"left",0.676056623458862,"None",NA,NA,NA,1,"GA1","2025-08-20_14h51.53.824","mlcm_experiment_whites_illusion",NA,"2025.1.1",59.9772348981004,"2025-08-20 14h51.58.443192 +0200",NA
"8",6,0.5,0.33,0,0,"imgs/white_0.5_0.33_0.0_0.0.png",6,6,0,"left",0.723495006561279,"None",0,6,6,6,8.51842665672302,NA,NA,NA,NA,NA,8.51313138008118,9.01547527313232,9.01547527313232,9.7520124912262,"left",0.723495006561279,"None",NA,NA,NA,1,"GA1","2025-08-20_14h51.53.824","mlcm_experiment_whites_illusion",NA,"2025.1.1",59.9772348981004,"2025-08-20 14h51.58.443192 +0200",NA
"9",7,0.42,0.33,0,0,"imgs/white_0.42_0.33_0.0_0.0.png",7,7,0,"left",1.51961851119995,"None",0,7,7,7,9.76785564422607,NA,NA,NA,NA,NA,9.76222896575928,10.2667062282562,10.2667062282562,11.8037028312683,"left",1.51961851119995,"None",NA,NA,NA,1,"GA1","2025-08-20_14h51.53.824","mlcm_experiment_whites_illusion",NA,"2025.1.1",59.9772348981004,"2025-08-20 14h51.58.443192 +0200",NA
"10",8,0.25,0.58,0,0,"imgs/white_0.25_0.58_0.0_0.0.png",8,8,0,"right",0.572264909744263,"None",0,8,8,8,11.8197154998779,NA,NA,NA,NA,NA,11.8101584911346,12.3185894489288,12.3185894489288,12.9050540924072,"right",0.572264909744263,"None",NA,NA,NA,1,"GA1","2025-08-20_14h51.53.824","mlcm_experiment_whites_illusion",NA,"2025.1.1",59.9772348981004,"2025-08-20 14h51.58.443192 +0200",NA
"11",9,0.5,0.33,1,0,"imgs/white_0.5_0.33_1.0_0.0.png",9,9,0,"left",1.3674099445343,"None",0,9,9,9,12.9211173057556,NA,NA,NA,NA,NA,12.9154424667358,13.4196298122406,13.4196298122406,14.7904317378998,"left",1.3674099445343,"None",NA,NA,NA,1,"GA1","2025-08-20_14h51.53.824","mlcm_experiment_whites_illusion",NA,"2025.1.1",59.9772348981004,"2025-08-20 14h51.58.443192 +0200",NA
"12",10,0.58,0.58,1,0,"imgs/white_0.58_0.58_1.0_0.0.png",10,10,0,"right",0.778708457946777,"None",0,10,10,10,14.8058204650879,NA,NA,NA,NA,NA,14.8001625537872,15.3042895793915,15.3042895793915,16.0908255577087,"right",0.778708457946777,"None",NA,NA,NA,1,"GA1","2025-08-20_14h51.53.824","mlcm_experiment_whites_illusion",NA,"2025.1.1",59.9772348981004,"2025-08-20 14h51.58.443192 +0200",NA
"13",11,0.33,0.75,1,1,"imgs/white_0.33_0.75_1.0_1.0.png",11,11,0,"right",0.821296453475952,"None",0,11,11,11,16.1067056655884,NA,NA,NA,NA,NA,16.1006174087524,16.6055216789246,16.6055216789246,17.4428913593292,"right",0.821296453475952,"None",NA,NA,NA,1,"GA1","2025-08-20_14h51.53.824","mlcm_experiment_whites_illusion",NA,"2025.1.1",59.9772348981004,"2025-08-20 14h51.58.443192 +0200",NA
"14",12,0.58,0.75,1,1,"imgs/white_0.58_0.75_1.0_1.0.png",12,12,0,"right",0.678787469863892,"None",0,12,12,12,17.4573655128479,NA,NA,NA,NA,NA,17.4459190368652,17.9564709663391,17.9564709663391,18.6431901454926,"right",0.678787469863892,"None",NA,NA,NA,1,"GA1","2025-08-20_14h51.53.824","mlcm_experiment_whites_illusion",NA,"2025.1.1",59.9772348981004,"2025-08-20 14h51.58.443192 +0200",NA
"15",13,0.42,0.5,1,0,"imgs/white_0.42_0.5_1.0_0.0.png",13,13,0,"right",0.573376655578613,"None",0,13,13,13,18.6589064598083,NA,NA,NA,NA,NA,18.6499361991882,19.1576263904572,19.1576263904572,19.7439363002777,"right",0.573376655578613,"None",NA,NA,NA,1,"GA1","2025-08-20_14h51.53.824","mlcm_experiment_whites_illusion",NA,"2025.1.1",59.9772348981004,"2025-08-20 14h51.58.443192 +0200",NA
"16",14,0.58,0.25,1,1,"imgs/white_0.58_0.25_1.0_1.0.png",14,14,0,"left",0.776473522186279,"None",0,14,14,14,19.7577137947083,NA,NA,NA,NA,NA,19.7512919902802,20.2586100101471,20.2586100101471,21.0460333824158,"left",0.776473522186279,"None",NA,NA,NA,1,"GA1","2025-08-20_14h51.53.824","mlcm_experiment_whites_illusion",NA,"2025.1.1",59.9772348981004,"2025-08-20 14h51.58.443192 +0200",NA
"17",15,0.33,0.67,1,1,"imgs/white_0.33_0.67_1.0_1.0.png",15,15,0,"right",0.690330028533936,"None",0,15,15,15,21.0605473518372,NA,NA,NA,NA,NA,21.0552461147308,21.5599160194397,21.5599160194397,22.2622156143188,"right",0.690330028533936,"None",NA,NA,NA,1,"GA1","2025-08-20_14h51.53.824","mlcm_experiment_whites_illusion",NA,"2025.1.1",59.9772348981004,"2025-08-20 14h51.58.443192 +0200",NA
"18",16,0.25,0.25,1,0,"imgs/white_0.25_0.25_1.0_0.0.png",16,16,0,"right",3.32210755348206,"None",0,16,16,16,22.2784247398376,NA,NA,NA,NA,NA,22.2664442062378,22.7773284912109,22.7773284912109,26.1188833713531,"right",3.32210755348206,"None",NA,NA,NA,1,"GA1","2025-08-20_14h51.53.824","mlcm_experiment_whites_illusion",NA,"2025.1.1",59.9772348981004,"2025-08-20 14h51.58.443192 +0200",NA
"19",17,0.33,0.42,1,1,"imgs/white_0.33_0.42_1.0_1.0.png",17,17,0,"right",0.84399938583374,"None",0,17,17,17,26.1333327293396,NA,NA,NA,NA,NA,26.1277940273285,26.630767583847,26.630767583847,27.4862713813782,"right",0.84399938583374,"None",NA,NA,NA,1,"GA1","2025-08-20_14h51.53.824","mlcm_experiment_whites_illusion",NA,"2025.1.1",59.9772348981004,"2025-08-20 14h51.58.443192 +0200",NA
"20",18,0.75,0.67,1,1,"imgs/white_0.75_0.67_1.0_1.0.png",18,18,0,"left",0.83689546585083,"None",0,18,18,18,27.4995424747467,NA,NA,NA,NA,NA,27.4929208755493,27.998428106308,27.998428106308,28.8521323204041,"left",0.83689546585083,"None",NA,NA,NA,1,"GA1","2025-08-20_14h51.53.824","mlcm_experiment_whites_illusion",NA,"2025.1.1",59.9772348981004,"2025-08-20 14h51.58.443192 +0200",NA
"21",19,0.25,0.67,0,0,"imgs/white_0.25_0.67_0.0_0.0.png",19,19,0,"right",0.661046743392944,"None",0,19,19,19,28.8672642707825,NA,NA,NA,NA,NA,28.8617663383484,29.3660843372345,29.3660843372345,30.0383839607239,"right",0.661046743392944,"None",NA,NA,NA,1,"GA1","2025-08-20_14h51.53.824","mlcm_experiment_whites_illusion",NA,"2025.1.1",59.9772348981004,"2025-08-20 14h51.58.443192 +0200",NA
"22",20,0.42,0.42,1,0,"imgs/white_0.42_0.42_1.0_0.0.png",20,20,0,"right",0.981182813644409,"None",0,20,20,20,30.0523867607117,NA,NA,NA,NA,NA,30.0468773841858,30.550491809845,30.550491809845,31.5389816761017,"right",0.981182813644409,"None",NA,NA,NA,1,"GA1","2025-08-20_14h51.53.824","mlcm_experiment_whites_illusion",NA,"2025.1.1",59.9772348981004,"2025-08-20 14h51.58.443192 +0200",NA
"23",21,0.5,0.75,1,0,"imgs/white_0.5_0.75_1.0_0.0.png",21,21,0,"right",0.519770622253418,"None",0,21,21,21,31.553334236145,NA,NA,NA,NA,NA,31.5462574958801,32.0515930652618,32.0515930652618,32.5892317295074,"right",0.519770622253418,"None",NA,NA,NA,1,"GA1","2025-08-20_14h51.53.824","mlcm_experiment_whites_illusion",NA,"2025.1.1",59.9772348981004,"2025-08-20 14h51.58.443192 +0200",NA
"24",22,0.33,0.58,0,0,"imgs/white_0.33_0.58_0.0_0.0.png",22,22,0,"right",0.732558250427246,"None",0,22,22,22,32.6051757335663,NA,NA,NA,NA,NA,32.5993556976318,33.1026434898376,33.1026434898376,33.8395540714264,"right",0.732558250427246,"None",NA,NA,NA,1,"GA1","2025-08-20_14h51.53.824","mlcm_experiment_whites_illusion",NA,"2025.1.1",59.9772348981004,"2025-08-20 14h51.58.443192 +0200",NA
"25",23,0.25,0.67,1,1,"imgs/white_0.25_0.67_1.0_1.0.png",23,23,0,"right",0.793597221374512,"None",0,23,23,23,33.8529186248779,NA,NA,NA,NA,NA,33.8491451740265,34.3539004325867,34.3539004325867,35.1579060554504,"right",0.793597221374512,"None",NA,NA,NA,1,"GA1","2025-08-20_14h51.53.824","mlcm_experiment_whites_illusion",NA,"2025.1.1",59.9772348981004,"2025-08-20 14h51.58.443192 +0200",NA
"26",24,0.67,0.67,1,0,"imgs/white_0.67_0.67_1.0_0.0.png",24,24,0,"right",1.03590512275696,"None",0,24,24,24,35.1727454662323,NA,NA,NA,NA,NA,35.1669964790344,35.6715905666351,35.6715905666351,36.7252380847931,"right",1.03590512275696,"None",NA,NA,NA,1,"GA1","2025-08-20_14h51.53.824","mlcm_experiment_whites_illusion",NA,"2025.1.1",59.9772348981004,"2025-08-20 14h51.58.443192 +0200",NA
"27",25,0.33,0.25,1,0,"imgs/white_0.33_0.25_1.0_0.0.png",25,25,0,"left",1.73978543281555,"None",0,25,25,25,36.7404844760895,NA,NA,NA,NA,NA,36.7351484298706,37.2396275997162,37.2396275997162,38.9945840835571,"left",1.73978543281555,"None",NA,NA,NA,1,"GA1","2025-08-20_14h51.53.824","mlcm_experiment_whites_illusion",NA,"2025.1.1",59.9772348981004,"2025-08-20 14h51.58.443192 +0200",NA
"28",26,0.75,0.25,0,0,"imgs/white_0.75_0.25_0.0_0.0.png",26,26,0,"left",0.535148620605469,"None",0,26,26,26,39.0128395557404,NA,NA,NA,NA,NA,39.0068998336792,39.5080494880676,39.5080494880676,40.0612819194794,"left",0.535148620605469,"None",NA,NA,NA,1,"GA1","2025-08-20_14h51.53.824","mlcm_experiment_whites_illusion",NA,"2025.1.1",59.9772348981004,"2025-08-20 14h51.58.443192 +0200",NA
"29",27,0.5,0.58,1,1,"imgs/white_0.5_0.58_1.0_1.0.png",27,27,0,"left",0.923748016357422,"None",0,27,27,27,40.0769226551056,NA,NA,NA,NA,NA,40.0684180259705,40.5757255554199,40.5757255554199,41.5129883289337,"left",0.923748016357422,"None",NA,NA,NA,1,"GA1","2025-08-20_14h51.53.824","mlcm_experiment_whites_illusion",NA,"2025.1.1",59.9772348981004,"2025-08-20 14h51.58.443192 +0200",NA
"30",28,0.33,0.33,0,1,"imgs/white_0.33_0.33_0.0_1.0.png",28,28,0,"left",0.880284309387207,"None",0,28,28,28,41.5280745029449,NA,NA,NA,NA,NA,41.5218923091888,42.0272824764252,42.0272824764252,42.9145238399506,"left",0.880284309387207,"None",NA,NA,NA,1,"GA1","2025-08-20_14h51.53.824","mlcm_experiment_whites_illusion",NA,"2025.1.1",59.9772348981004,"2025-08-20 14h51.58.443192 +0200",NA
"31",29,0.58,0.42,1,0,"imgs/white_0.58_0.42_1.0_0.0.png",29,29,0,"left",0.735469341278076,"None",0,29,29,29,42.9273242950439,NA,NA,NA,NA,NA,42.9214329719543,43.4279959201813,43.4279959201813,44.1822247505188,"left",0.735469341278076,"None",NA,NA,NA,1,"GA1","2025-08-20_14h51.53.824","mlcm_experiment_whites_illusion",NA,"2025.1.1",59.9772348981004,"2025-08-20 14h51.58.443192 +0200",NA
"32",30,0.5,0.5,1,0,"imgs/white_0.5_0.5_1.0_0.0.png",30,30,0,"right",0.619683980941772,"None",0,30,30,30,44.1972868442535,NA,NA,NA,NA,NA,44.1921133995056,44.6957695484161,44.6957695484161,45.3325295448303,"right",0.619683980941772,"None",NA,NA,NA,1,"GA1","2025-08-20_14h51.53.824","mlcm_experiment_whites_illusion",NA,"2025.1.1",59.9772348981004,"2025-08-20 14h51.58.443192 +0200",NA
"33",31,0.67,0.25,0,1,"imgs/white_0.67_0.25_0.0_1.0.png",31,31,0,"left",0.6044020652771,"None",0,31,31,31,45.3478889465332,NA,NA,NA,NA,NA,45.3426749706268,45.8469200134277,45.8469200134277,46.4668638706207,"left",0.6044020652771,"None",NA,NA,NA,1,"GA1","2025-08-20_14h51.53.824","mlcm_experiment_whites_illusion",NA,"2025.1.1",59.9772348981004,"2025-08-20 14h51.58.443192 +0200",NA
"34",32,0.33,0.25,1,1,"imgs/white_0.33_0.25_1.0_1.0.png",32,32,0,"left",1.28620719909668,"None",0,32,32,32,46.4822494983673,NA,NA,NA,NA,NA,46.4755232334137,46.9812684059143,46.9812684059143,48.2850930690765,"left",1.28620719909668,"None",NA,NA,NA,1,"GA1","2025-08-20_14h51.53.824","mlcm_experiment_whites_illusion",NA,"2025.1.1",59.9772348981004,"2025-08-20 14h51.58.443192 +0200",NA
"35",33,0.58,0.42,0,0,"imgs/white_0.58_0.42_0.0_0.0.png",33,33,0,"left",0.788334846496582,"None",0,33,33,33,48.3006403446198,NA,NA,NA,NA,NA,48.295206785202,48.7993857860565,48.7993857860565,49.6043956279755,"left",0.788334846496582,"None",NA,NA,NA,1,"GA1","2025-08-20_14h51.53.824","mlcm_experiment_whites_illusion",NA,"2025.1.1",59.9772348981004,"2025-08-20 14h51.58.443192 +0200",NA
"36",34,0.25,0.58,1,0,"imgs/white_0.25_0.58_1.0_0.0.png",34,34,0,"right",0.614528894424438,"None",0,34,34,34,49.6192357540131,NA,NA,NA,NA,NA,49.6137895584106,50.1171307563782,50.1171307563782,50.7395129203796,"right",0.614528894424438,"None",NA,NA,NA,1,"GA1","2025-08-20_14h51.53.824","mlcm_experiment_whites_illusion",NA,"2025.1.1",59.9772348981004,"2025-08-20 14h51.58.443192 +0200",NA
"37",35,0.25,0.33,1,0,"imgs/white_0.25_0.33_1.0_0.0.png",35,35,0,"right",0.616174459457397,"None",0,35,35,35,50.7537093162537,NA,NA,NA,NA,NA,50.7482812404633,51.2513346672058,51.2513346672058,51.8712823390961,"right",0.616174459457397,"None",NA,NA,NA,1,"GA1","2025-08-20_14h51.53.824","mlcm_experiment_whites_illusion",NA,"2025.1.1",59.9772348981004,"2025-08-20 14h51.58.443192 +0200",NA
"38",36,0.58,0.67,0,1,"imgs/white_0.58_0.67_0.0_1.0.png",36,36,0,"right",4.19339394569397,"None",0,36,36,36,51.8857088088989,NA,NA,NA,NA,NA,51.8791244029999,52.3855030536652,52.3855030536652,56.5915465354919,"right",4.19339394569397,"None",NA,NA,NA,1,"GA1","2025-08-20_14h51.53.824","mlcm_experiment_whites_illusion",NA,"2025.1.1",59.9772348981004,"2025-08-20 14h51.58.443192 +0200",NA
"39",37,0.75,0.58,0,0,"imgs/white_0.75_0.58_0.0_0.0.png",37,37,0,"left",1.12122678756714,"None",0,37,37,37,56.6076064109802,NA,NA,NA,NA,NA,56.5955879688263,57.1063868999481,57.1063868999481,58.2430667877197,"left",1.12122678756714,"None",NA,NA,NA,1,"GA1","2025-08-20_14h51.53.824","mlcm_experiment_whites_illusion",NA,"2025.1.1",59.9772348981004,"2025-08-20 14h51.58.443192 +0200",NA
"40",38,0.75,0.42,1,0,"imgs/white_0.75_0.42_1.0_0.0.png",38,38,0,"left",0.958290338516235,"None",0,38,38,38,58.2589259147644,NA,NA,NA,NA,NA,58.2530817985535,58.7574880123138,58.7574880123138,59.7289428710938,"left",0.958290338516235,"None",NA,NA,NA,1,"GA1","2025-08-20_14h51.53.824","mlcm_experiment_whites_illusion",NA,"2025.1.1",59.9772348981004,"2025-08-20 14h51.58.443192 +0200",NA
"41",39,0.67,0.75,1,0,"imgs/white_0.67_0.75_1.0_0.0.png",39,39,0,"right",0.561593055725098,"None",0,39,39,39,59.7435340881348,NA,NA,NA,NA,NA,59.7354438304901,60.2423582077026,60.2423582077026,60.8120636940002,"right",0.561593055725098,"None",NA,NA,NA,1,"GA1","2025-08-20_14h51.53.824","mlcm_experiment_whites_illusion",NA,"2025.1.1",59.9772348981004,"2025-08-20 14h51.58.443192 +0200",NA
"42",40,0.5,0.58,0,1,"imgs/white_0.5_0.58_0.0_1.0.png",40,40,0,"left",0.669295072555542,"None",0,40,40,40,60.8278682231903,NA,NA,NA,NA,NA,60.8202633857727,61.3265585899353,61.3265585899353,62.0141260623932,"left",0.669295072555542,"None",NA,NA,NA,1,"GA1","2025-08-20_14h51.53.824","mlcm_experiment_whites_illusion",NA,"2025.1.1",59.9772348981004,"2025-08-20 14h51.58.443192 +0200",NA
"43",41,0.75,0.58,1,0,"imgs/white_0.75_0.58_1.0_0.0.png",41,41,0,"right",1.07622957229614,"None",0,41,41,41,62.029443025589,NA,NA,NA,NA,NA,62.0239243507385,62.5276479721069,62.5276479721069,63.6172404289246,"right",1.07622957229614,"None",NA,NA,NA,1,"GA1","2025-08-20_14h51.53.824","mlcm_experiment_whites_illusion",NA,"2025.1.1",59.9772348981004,"2025-08-20 14h51.58.443192 +0200",NA
"44",42,0.67,0.5,1,0,"imgs/white_0.67_0.5_1.0_0.0.png",42,42,0,"left",0.674636363983154,"None",0,42,42,42,63.630095243454,NA,NA,NA,NA,NA,63.6230702400208,64.1290457248688,64.1290457248688,64.8158600330353,"left",0.674636363983154,"None",NA,NA,NA,1,"GA1","2025-08-20_14h51.53.824","mlcm_experiment_whites_illusion",NA,"2025.1.1",59.9772348981004,"2025-08-20 14h51.58.443192 +0200",NA
"45",43,0.67,0.25,1,0,"imgs/white_0.67_0.25_1.0_0.0.png",43,43,0,"left",0.714322805404663,"None",0,43,43,43,64.8348090648651,NA,NA,NA,NA,NA,64.8273639678955,65.3297691345215,65.3297691345215,66.0499348640442,"left",0.714322805404663,"None",NA,NA,NA,1,"GA1","2025-08-20_14h51.53.824","mlcm_experiment_whites_illusion",NA,"2025.1.1",59.9772348981004,"2025-08-20 14h51.58.443192 +0200",NA
"46",44,0.75,0.75,1,0,"imgs/white_0.75_0.75_1.0_0.0.png",44,44,0,"right",1.23180842399597,"None",0,44,44,44,66.0651972293854,NA,NA,NA,NA,NA,66.0600657463074,66.5641791820526,66.5641791820526,67.8016872406006,"right",1.23180842399597,"None",NA,NA,NA,1,"GA1","2025-08-20_14h51.53.824","mlcm_experiment_whites_illusion",NA,"2025.1.1",59.9772348981004,"2025-08-20 14h51.58.443192 +0200",NA
"47",45,0.75,0.33,1,0,"imgs/white_0.75_0.33_1.0_0.0.png",45,45,0,"left",0.592082023620605,"None",0,45,45,45,67.8175253868103,NA,NA,NA,NA,NA,67.8092043399811,68.315762758255,68.315762758255,68.9194149971008,"left",0.592082023620605,"None",NA,NA,NA,1,"GA1","2025-08-20_14h51.53.824","mlcm_experiment_whites_illusion",NA,"2025.1.1",59.9772348981004,"2025-08-20 14h51.58.443192 +0200",NA
"48",46,0.67,0.5,0,0,"imgs/white_0.67_0.5_0.0_0.0.png",46,46,0,"left",0.578932523727417,"None",0,46,46,46,68.9328262805939,NA,NA,NA,NA,NA,68.9257781505585,69.4331409931183,69.4331409931183,70.0224838256836,"left",0.578932523727417,"None",NA,NA,NA,1,"GA1","2025-08-20_14h51.53.824","mlcm_experiment_whites_illusion",NA,"2025.1.1",59.9772348981004,"2025-08-20 14h51.58.443192 +0200",NA
"49",47,0.5,0.25,1,1,"imgs/white_0.5_0.25_1.0_1.0.png",47,47,0,"left",0.621625423431396,"None",0,47,47,47,70.0388424396515,NA,NA,NA,NA,NA,70.0332863330841,70.5341963768005,70.5341963768005,71.1732785701752,"left",0.621625423431396,"None",NA,NA,NA,1,"GA1","2025-08-20_14h51.53.824","mlcm_experiment_whites_illusion",NA,"2025.1.1",59.9772348981004,"2025-08-20 14h51.58.443192 +0200",NA
"50",48,0.42,0.33,1,0,"imgs/white_0.42_0.33_1.0_0.0.png",48,48,0,"right",1.5108630657196,"None",0,48,48,48,71.187283039093,NA,NA,NA,NA,NA,71.1820034980774,71.6849920749664,71.6849920749664,73.2066788673401,"right",1.5108630657196,"None",NA,NA,NA,1,"GA1","2025-08-20_14h51.53.824","mlcm_experiment_whites_illusion",NA,"2025.1.1",59.9772348981004,"2025-08-20 14h51.58.443192 +0200",NA
"51",49,0.5,0.67,1,0,"imgs/white_0.5_0.67_1.0_0.0.png",49,49,0,"left",0.507928848266602,"None",0,49,49,49,73.2248103618622,NA,NA,NA,NA,NA,73.2198197841644,73.7201886177063,73.7201886177063,74.2409136295319,"left",0.507928848266602,"None",NA,NA,NA,1,"GA1","2025-08-20_14h51.53.824","mlcm_experiment_whites_illusion",NA,"2025.1.1",59.9772348981004,"2025-08-20 14h51.58.443192 +0200",NA
"52",50,0.42,0.67,0,0,"imgs/white_0.42_0.67_0.0_0.0.png",50,50,0,"right",0.529484987258911,"None",0,50,50,50,74.2535853385925,NA,NA,NA,NA,NA,74.2475636005402,74.7545278072357,74.7545278072357,75.2930092811584,"right",0.529484987258911,"None",NA,NA,NA,1,"GA1","2025-08-20_14h51.53.824","mlcm_experiment_whites_illusion",NA,"2025.1.1",59.9772348981004,"2025-08-20 14h51.58.443192 +0200",NA
"53",51,0.33,0.5,1,0,"imgs/white_0.33_0.5_1.0_0.0.png",51,51,0,"right",0.517943620681763,"None",0,51,51,51,75.3066728115082,NA,NA,NA,NA,NA,75.2993719577789,75.8054716587067,75.8054716587067,76.324958562851,"right",0.517943620681763,"None",NA,NA,NA,1,"GA1","2025-08-20_14h51.53.824","mlcm_experiment_whites_illusion",NA,"2025.1.1",59.9772348981004,"2025-08-20 14h51.58.443192 +0200",NA
"54",52,0.25,0.42,1,1,"imgs/white_0.25_0.42_1.0_1.0.png",52,52,0,"right",0.603658199310303,"None",0,52,52,52,76.3404102325439,NA,NA,NA,NA,NA,76.3300621509552,76.8398721218109,76.8398721218109,77.459578037262,"right",0.603658199310303,"None",NA,NA,NA,1,"GA1","2025-08-20_14h51.53.824","mlcm_experiment_whites_illusion",NA,"2025.1.1",59.9772348981004,"2025-08-20 14h51.58.443192 +0200",NA
"55",53,0.75,0.33,0,0,"imgs/white_0.75_0.33_0.0_0.0.png",53,53,0,"left",0.581456661224365,"None",0,53,53,53,77.4746119976044,NA,NA,NA,NA,NA,77.462991476059,77.9752876758575,77.9752876758575,78.5603697299957,"left",0.581456661224365,"None",NA,NA,NA,1,"GA1","2025-08-20_14h51.53.824","mlcm_experiment_whites_illusion",NA,"2025.1.1",59.9772348981004,"2025-08-20 14h51.58.443192 +0200",NA
"56",54,0.5,0.67,1,1,"imgs/white_0.5_0.67_1.0_1.0.png",54,54,0,"right",0.673263311386108,"None",0,54,54,54,78.5740625858307,NA,NA,NA,NA,NA,78.5683922767639,79.0748822689056,79.0748822689056,79.7617304325104,"right",0.673263311386108,"None",NA,NA,NA,1,"GA1","2025-08-20_14h51.53.824","mlcm_experiment_whites_illusion",NA,"2025.1.1",59.9772348981004,"2025-08-20 14h51.58.443192 +0200",NA
"57",55,0.67,0.58,1,1,"imgs/white_0.67_0.58_1.0_1.0.png",55,55,0,"left",0.704285860061646,"None",0,55,55,55,79.777174949646,NA,NA,NA,NA,NA,79.7695527076721,80.2758498191833,80.2758498191833,80.9959020614624,"left",0.704285860061646,"None",NA,NA,NA,1,"GA1","2025-08-20_14h51.53.824","mlcm_experiment_whites_illusion",NA,"2025.1.1",59.9772348981004,"2025-08-20 14h51.58.443192 +0200",NA
"58",56,0.5,0.75,0,0,"imgs/white_0.5_0.75_0.0_0.0.png",56,56,0,"right",0.54166579246521,"None",0,56,56,56,81.0111689567566,NA,NA,NA,NA,NA,81.0059475898743,81.5103888511658,81.5103888511658,82.0651285648346,"right",0.54166579246521,"None",NA,NA,NA,1,"GA1","2025-08-20_14h51.53.824","mlcm_experiment_whites_illusion",NA,"2025.1.1",59.9772348981004,"2025-08-20 14h51.58.443192 +0200",NA
"59",57,0.25,0.33,0,0,"imgs/white_0.25_0.33_0.0_0.0.png",57,57,0,"left",0.65805983543396,"None",0,57,57,57,82.0804584026337,NA,NA,NA,NA,NA,82.0750212669373,82.5780034065247,82.5780034065247,83.2481009960175,"left",0.65805983543396,"None",NA,NA,NA,1,"GA1","2025-08-20_14h51.53.824","mlcm_experiment_whites_illusion",NA,"2025.1.1",59.9772348981004,"2025-08-20 14h51.58.443192 +0200",NA
"60",58,0.67,0.33,0,1,"imgs/white_0.67_0.33_0.0_1.0.png",58,58,0,"left",0.553926706314087,"None",0,58,58,58,83.2635836601257,NA,NA,NA,NA,NA,83.2551522254944,83.7621943950653,83.7621943950653,84.3325636386871,"left",0.553926706314087,"None",NA,NA,NA,1,"GA1","2025-08-20_14h51.53.824","mlcm_experiment_whites_illusion",NA,"2025.1.1",59.9772348981004,"2025-08-20 14h51.58.443192 +0200",NA
"61",59,0.67,0.75,0,1,"imgs/white_0.67_0.75_0.0_1.0.png",59,59,0,"left",1.51001477241516,"None",0,59,59,59,84.3460955619812,NA,NA,NA,NA,NA,84.3390781879425,84.8462722301483,84.8462722301483,86.366664648056,"left",1.51001477241516,"None",NA,NA,NA,1,"GA1","2025-08-20_14h51.53.824","mlcm_experiment_whites_illusion",NA,"2025.1.1",59.9772348981004,"2025-08-20 14h51.58.443192 +0200",NA
"62",60,0.42,0.75,1,0,"imgs/white_0.42_0.75_1.0_0.0.png",60,60,0,"right",0.561981678009033,"None",0,60,60,60,86.3802618980408,NA,NA,NA,NA,NA,86.377014875412,86.8815240859985,86.8815240859985,87.4513838291168,"right",0.561981678009033,"None",NA,NA,NA,1,"GA1","2025-08-20_14h51.53.824","mlcm_experiment_whites_illusion",NA,"2025.1.1",59.9772348981004,"2025-08-20 14h51.58.443192 +0200",NA
"63",61,0.33,0.58,0,1,"imgs/white_0.33_0.58_0.0_1.0.png",61,61,0,"right",0.686545848846436,"None",0,61,61,61,87.4665381908417,NA,NA,NA,NA,NA,87.4564790725708,87.9656343460083,87.9656343460083,88.6702971458435,"right",0.686545848846436,"None",NA,NA,NA,1,"GA1","2025-08-20_14h51.53.824","mlcm_experiment_whites_illusion",NA,"2025.1.1",59.9772348981004,"2025-08-20 14h51.58.443192 +0200",NA
"64",62,0.42,0.75,1,1,"imgs/white_0.42_0.75_1.0_1.0.png",62,62,0,"right",0.53300142288208,"None",0,62,62,62,88.6845827102661,NA,NA,NA,NA,NA,88.6768457889557,89.1834423542023,89.1834423542023,89.7197835445404,"right",0.53300142288208,"None",NA,NA,NA,1,"GA1","2025-08-20_14h51.53.824","mlcm_experiment_whites_illusion",NA,"2025.1.1",59.9772348981004,"2025-08-20 14h51.58.443192 +0200",NA
"65",63,0.5,0.42,0,0,"imgs/white_0.5_0.42_0.0_0.0.png",63,63,0,"left",0.729286670684814,"None",0,63,63,63,89.7335133552551,NA,NA,NA,NA,NA,89.7291615009308,90.2343256473541,90.2343256473541,90.9702234268188,"left",0.729286670684814,"None",NA,NA,NA,1,"GA1","2025-08-20_14h51.53.824","mlcm_experiment_whites_illusion",NA,"2025.1.1",59.9772348981004,"2025-08-20 14h51.58.443192 +0200",NA
"66",64,0.5,0.25,0,0,"imgs/white_0.5_0.25_0.0_0.0.png",64,64,0,"left",0.61590838432312,"None",0,64,64,64,90.9860649108887,NA,NA,NA,NA,NA,90.9747159481049,91.485057592392,91.485057592392,92.1046006679535,"left",0.61590838432312,"None",NA,NA,NA,1,"GA1","2025-08-20_14h51.53.824","mlcm_experiment_whites_illusion",NA,"2025.1.1",59.9772348981004,"2025-08-20 14h51.58.443192 +0200",NA
"67",65,0.33,0.67,0,1,"imgs/white_0.33_0.67_0.0_1.0.png",65,65,0,"right",0.696769714355469,"None",0,65,65,65,92.1191213130951,NA,NA,NA,NA,NA,92.111474275589,92.619656085968,92.619656085968,93.3220694065094,"right",0.696769714355469,"None",NA,NA,NA,1,"GA1","2025-08-20_14h51.53.824","mlcm_experiment_whites_illusion",NA,"2025.1.1",59.9772348981004,"2025-08-20 14h51.58.443192 +0200",NA
"68",66,0.58,0.5,0,0,"imgs/white_0.58_0.5_0.0_0.0.png",66,66,0,"left",0.703302621841431,"None",0,66,66,66,93.3365333080292,NA,NA,NA,NA,NA,93.3291234970093,93.8371133804321,93.8371133804321,94.5573799610138,"left",0.703302621841431,"None",NA,NA,NA,1,"GA1","2025-08-20_14h51.53.824","mlcm_experiment_whites_illusion",NA,"2025.1.1",59.9772348981004,"2025-08-20 14h51.58.443192 +0200",NA
"69",67,0.25,0.75,1,1,"imgs/white_0.25_0.75_1.0_1.0.png",67,67,0,"right",0.540717840194702,"None",0,67,67,67,94.5768029689789,NA,NA,NA,NA,NA,94.571008682251,95.0717010498047,95.0717010498047,95.626904964447,"right",0.540717840194702,"None",NA,NA,NA,1,"GA1","2025-08-20_14h51.53.824","mlcm_experiment_whites_illusion",NA,"2025.1.1",59.9772348981004,"2025-08-20 14h51.58.443192 +0200",NA
"70",68,0.5,0.25,1,0,"imgs/white_0.5_0.25_1.0_0.0.png",68,68,0,"left",0.601423501968384,"None",0,68,68,68,95.6410455703735,NA,NA,NA,NA,NA,95.635379076004,96.1395070552826,96.1395070552826,96.7591335773468,"left",0.601423501968384,"None",NA,NA,NA,1,"GA1","2025-08-20_14h51.53.824","mlcm_experiment_whites_illusion",NA,"2025.1.1",59.9772348981004,"2025-08-20 14h51.58.443192 +0200",NA
"71",69,0.67,0.58,0,0,"imgs/white_0.67_0.58_0.0_0.0.png",69,69,0,"left",0.554877519607544,"None",0,69,69,69,96.7745950222015,NA,NA,NA,NA,NA,96.7679491043091,97.2735416889191,97.2735416889191,97.8462228775024,"left",0.554877519607544,"None",NA,NA,NA,1,"GA1","2025-08-20_14h51.53.824","mlcm_experiment_whites_illusion",NA,"2025.1.1",59.9772348981004,"2025-08-20 14h51.58.443192 +0200",NA
"72",70,0.33,0.42,1,0,"imgs/white_0.33_0.42_1.0_0.0.png",70,70,0,"right",0.58288311958313,"None",0,70,70,70,97.8589038848877,NA,NA,NA,NA,NA,97.8522572517395,98.3576159477234,98.3576159477234,98.944043636322,"right",0.58288311958313,"None",NA,NA,NA,1,"GA1","2025-08-20_14h51.53.824","mlcm_experiment_whites_illusion",NA,"2025.1.1",59.9772348981004,"2025-08-20 14h51.58.443192 +0200",NA
"73",71,0.58,0.42,0,1,"imgs/white_0.58_0.42_0.0_1.0.png",71,71,0,"left",0.545635461807251,"None",0,71,71,71,98.9618690013885,NA,NA,NA,NA,NA,98.9556829929352,99.4586725234985,99.4586725234985,100.011220932007,"left",0.545635461807251,"None",NA,NA,NA,1,"GA1","2025-08-20_14h51.53.824","mlcm_experiment_whites_illusion",NA,"2025.1.1",59.9772348981004,"2025-08-20 14h51.58.443192 +0200",NA
"74",72,0.5,0.58,1,0,"imgs/white_0.5_0.58_1.0_0.0.png",72,72,0,"right",1.26229858398438,"None",0,72,72,72,100.025398492813,NA,NA,NA,NA,NA,100.018128395081,100.526180267334,100.526180267334,101.796374559402,"right",1.26229858398438,"None",NA,NA,NA,1,"GA1","2025-08-20_14h51.53.824","mlcm_experiment_whites_illusion",NA,"2025.1.1",59.9772348981004,"2025-08-20 14h51.58.443192 +0200",NA
"75",73,0.25,0.42,1,0,"imgs/white_0.25_0.42_1.0_0.0.png",73,73,0,"right",0.581575155258179,"None",0,73,73,73,101.816181898117,NA,NA,NA,NA,NA,101.809911251068,102.311032533646,102.311032533646,102.898187875748,"right",0.581575155258179,"None",NA,NA,NA,1,"GA1","2025-08-20_14h51.53.824","mlcm_experiment_whites_illusion",NA,"2025.1.1",59.9772348981004,"2025-08-20 14h51.58.443192 +0200",NA
"76",74,0.67,0.42,1,0,"imgs/white_0.67_0.42_1.0_0.0.png",74,74,0,"left",0.649406909942627,"None",0,74,74,74,102.911021232605,NA,NA,NA,NA,NA,102.904448986053,103.412084817886,103.412084817886,104.064770460129,"left",0.649406909942627,"None",NA,NA,NA,1,"GA1","2025-08-20_14h51.53.824","mlcm_experiment_whites_illusion",NA,"2025.1.1",59.9772348981004,"2025-08-20 14h51.58.443192 +0200",NA
"77",75,0.75,0.58,0,1,"imgs/white_0.75_0.58_0.0_1.0.png",75,75,0,"left",0.592629432678223,"None",0,75,75,75,104.080915212631,NA,NA,NA,NA,NA,104.075092792511,104.579965591431,104.579965591431,105.185057878494,"left",0.592629432678223,"None",NA,NA,NA,1,"GA1","2025-08-20_14h51.53.824","mlcm_experiment_whites_illusion",NA,"2025.1.1",59.9772348981004,"2025-08-20 14h51.58.443192 +0200",NA
"78",76,0.75,0.5,1,1,"imgs/white_0.75_0.5_1.0_1.0.png",76,76,0,"left",0.787373304367065,"None",0,76,76,76,105.198439836502,NA,NA,NA,NA,NA,105.190546751022,105.69729757309,105.69729757309,106.501263856888,"left",0.787373304367065,"None",NA,NA,NA,1,"GA1","2025-08-20_14h51.53.824","mlcm_experiment_whites_illusion",NA,"2025.1.1",59.9772348981004,"2025-08-20 14h51.58.443192 +0200",NA
"79",77,0.75,0.33,0,1,"imgs/white_0.75_0.33_0.0_1.0.png",77,77,0,"left",0.59785532951355,"None",0,77,77,77,106.516172647476,NA,NA,NA,NA,NA,106.508300304413,107.014935970306,107.014935970306,107.620309114456,"left",0.59785532951355,"None",NA,NA,NA,1,"GA1","2025-08-20_14h51.53.824","mlcm_experiment_whites_illusion",NA,"2025.1.1",59.9772348981004,"2025-08-20 14h51.58.443192 +0200",NA
"80",78,0.58,0.67,1,0,"imgs/white_0.58_0.67_1.0_0.0.png",78,78,0,"right",0.608126640319824,"None",0,78,78,78,107.631605386734,NA,NA,NA,NA,NA,107.626115083694,108.132752895355,108.132752895355,108.754590272903,"right",0.608126640319824,"None",NA,NA,NA,1,"GA1","2025-08-20_14h51.53.824","mlcm_experiment_whites_illusion",NA,"2025.1.1",59.9772348981004,"2025-08-20 14h51.58.443192 +0200",NA
"81",79,0.5,0.25,0,1,"imgs/white_0.5_0.25_0.0_1.0.png",79,79,0,"left",0.570052623748779,"None",0,79,79,79,108.769066095352,NA,NA,NA,NA,NA,108.763773202896,109.266787528992,109.266787528992,109.854677438736,"left",0.570052623748779,"None",NA,NA,NA,1,"GA1","2025-08-20_14h51.53.824","mlcm_experiment_whites_illusion",NA,"2025.1.1",59.9772348981004,"2025-08-20 14h51.58.443192 +0200",NA
"82",80,0.25,0.75,1,0,"imgs/white_0.25_0.75_1.0_0.0.png",80,80,0,"right",0.517085790634155,"None",0,80,80,80,109.870156526566,NA,NA,NA,NA,NA,109.864702701569,110.367671728134,110.367671728134,110.905768632889,"right",0.517085790634155,"None",NA,NA,NA,1,"GA1","2025-08-20_14h51.53.824","mlcm_experiment_whites_illusion",NA,"2025.1.1",59.9772348981004,"2025-08-20 14h51.58.443192 +0200",NA
"83",81,0.67,0.75,0,0,"imgs/white_0.67_0.75_0.0_0.0.png",81,81,0,"right",0.842242240905762,"None",0,81,81,81,110.919814109802,NA,NA,NA,NA,NA,110.913399934769,111.418651103973,111.418651103973,112.274534702301,"right",0.842242240905762,"None",NA,NA,NA,1,"GA1","2025-08-20_14h51.53.824","mlcm_experiment_whites_illusion",NA,"2025.1.1",59.9772348981004,"2025-08-20 14h51.58.443192 +0200",NA
"84",82,0.58,0.33,0,1,"imgs/white_0.58_0.33_0.0_1.0.png",82,82,0,"left",0.602290868759155,"None",0,82,82,82,112.288645505905,NA,NA,NA,NA,NA,112.283400058746,112.786470174789,112.786470174789,113.407914638519,"left",0.602290868759155,"None",NA,NA,NA,1,"GA1","2025-08-20_14h51.53.824","mlcm_experiment_whites_illusion",NA,"2025.1.1",59.9772348981004,"2025-08-20 14h51.58.443192 +0200",NA
"85",83,0.5,0.33,1,1,"imgs/white_0.5_0.33_1.0_1.0.png",83,83,0,"left",0.684095144271851,"None",0,83,83,83,113.42218375206,NA,NA,NA,NA,NA,113.414792060852,113.920722723007,113.920722723007,114.624210357666,"left",0.684095144271851,"None",NA,NA,NA,1,"GA1","2025-08-20_14h51.53.824","mlcm_experiment_whites_illusion",NA,"2025.1.1",59.9772348981004,"2025-08-20 14h51.58.443192 +0200",NA
"86",84,0.42,0.5,0,1,"imgs/white_0.42_0.5_0.0_1.0.png",84,84,0,"left",1.10528302192688,"None",0,84,84,84,114.639806270599,NA,NA,NA,NA,NA,114.63258433342,115.138574123383,115.138574123383,116.258464574814,"left",1.10528302192688,"None",NA,NA,NA,1,"GA1","2025-08-20_14h51.53.824","mlcm_experiment_whites_illusion",NA,"2025.1.1",59.9772348981004,"2025-08-20 14h51.58.443192 +0200",NA
"87",85,0.5,0.75,0,1,"imgs/white_0.5_0.75_0.0_1.0.png",85,85,0,"right",1.01647520065308,"None",0,85,85,85,116.274013996124,NA,NA,NA,NA,NA,116.263166904449,116.773290634155,116.773290634155,117.793878078461,"right",1.01647520065308,"None",NA,NA,NA,1,"GA1","2025-08-20_14h51.53.824","mlcm_experiment_whites_illusion",NA,"2025.1.1",59.9772348981004,"2025-08-20 14h51.58.443192 +0200",NA
"88",86,0.42,0.75,0,0,"imgs/white_0.42_0.75_0.0_0.0.png",86,86,0,"right",0.849251985549927,"None",0,86,86,86,117.807318687439,NA,NA,NA,NA,NA,117.801389932632,118.307935476303,118.307935476303,119.161043167114,"right",0.849251985549927,"None",NA,NA,NA,1,"GA1","2025-08-20_14h51.53.824","mlcm_experiment_whites_illusion",NA,"2025.1.1",59.9772348981004,"2025-08-20 14h51.58.443192 +0200",NA
"89",87,0.25,0.42,0,0,"imgs/white_0.25_0.42_0.0_0.0.png",87,87,0,"right",1.7050666809082,"None",0,87,87,87,119.180428504944,NA,NA,NA,NA,NA,119.173205852509,119.675774097443,119.675774097443,121.39657664299,"right",1.7050666809082,"None",NA,NA,NA,1,"GA1","2025-08-20_14h51.53.824","mlcm_experiment_whites_illusion",NA,"2025.1.1",59.9772348981004,"2025-08-20 14h51.58.443192 +0200",NA
"90",88,0.42,0.58,1,1,"imgs/white_0.42_0.58_1.0_1.0.png",88,88,0,"right",0.677045106887817,"None",0,88,88,88,121.411973714828,NA,NA,NA,NA,NA,121.406351804733,121.910919904709,121.910919904709,122.596647262573,"right",0.677045106887817,"None",NA,NA,NA,1,"GA1","2025-08-20_14h51.53.824","mlcm_experiment_whites_illusion",NA,"2025.1.1",59.9772348981004,"2025-08-20 14h51.58.443192 +0200",NA
"91",89,0.42,0.25,1,0,"imgs/white_0.42_0.25_1.0_0.0.png",89,89,0,"right",0.66121506690979,"None",0,89,89,89,122.612620353699,NA,NA,NA,NA,NA,122.601500511169,123.111721515656,123.111721515656,123.781668424606,"right",0.66121506690979,"None",NA,NA,NA,1,"GA1","2025-08-20_14h51.53.824","mlcm_experiment_whites_illusion",NA,"2025.1.1",59.9772348981004,"2025-08-20 14h51.58.443192 +0200",NA
"92",90,0.42,0.67,1,0,"imgs/white_0.42_0.67_1.0_0.0.png",90,90,0,"right",0.532403945922852,"None",0,90,90,90,123.795515060425,NA,NA,NA,NA,NA,123.788591623306,124.29611325264,124.29611325264,124.831281900406,"right",0.532403945922852,"None",NA,NA,NA,1,"GA1","2025-08-20_14h51.53.824","mlcm_experiment_whites_illusion",NA,"2025.1.1",59.9772348981004,"2025-08-20 14h51.58.443192 +0200",NA
"93",NA,NA,NA,NA,NA,"",NA,NA,NA,"",NA,"",NA,NA,NA,NA,NA,NA,NA,NA,NA,NA,NA,NA,NA,NA,"",NA,"",124.885616064072,124.889895439148,126.831693172455,1,"GA1","2025-08-20_14h51.53.824","mlcm_experiment_whites_illusion",NA,"2025.1.1",59.9772348981004,"2025-08-20 14h51.58.443192 +0200",NA
"94",NA,NA,NA,NA,NA,"",NA,NA,NA,"",NA,"",NA,NA,NA,NA,NA,NA,0.0111403465270996,0.0151898860931396,0.0151898860931396,0.512145757675171,NA,NA,NA,NA,"",NA,"",NA,NA,NA,2,"GA2","2025-08-20_14h55.39.569","mlcm_experiment_whites_illusion",NA,"2025.1.1",59.9208542031561,"2025-08-20 14h55.45.926289 +0200",NA
"95",0,0.42,0.5,1,1,"imgs/white_0.42_0.5_1.0_1.0.png",0,0,0,"right",0.846143484115601,"None",0,0,0,0,0.531632661819458,NA,NA,NA,NA,NA,0.528337240219116,1.02663087844849,1.02663087844849,1.87634682655334,"right",0.846143484115601,"None",NA,NA,NA,2,"GA2","2025-08-20_14h55.39.569","mlcm_experiment_whites_illusion",NA,"2025.1.1",59.9208542031561,"2025-08-20 14h55.45.926289 +0200",NA
"96",1,0.25,0.58,0,1,"imgs/white_0.25_0.58_0.0_1.0.png",1,1,0,"right",0.738322973251343,"None",0,1,1,1,1.88914465904236,NA,NA,NA,NA,NA,1.88483953475952,2.38992500305176,2.38992500305176,3.14395260810852,"right",0.738322973251343,"None",NA,NA,NA,2,"GA2","2025-08-20_14h55.39.569","mlcm_experiment_whites_illusion",NA,"2025.1.1",59.9208542031561,"2025-08-20 14h55.45.926289 +0200",NA
"97",2,0.33,0.67,0,0,"imgs/white_0.33_0.67_0.0_0.0.png",2,2,0,"right",0.614451885223389,"None",0,2,2,2,3.15689516067505,NA,NA,NA,NA,NA,3.15169334411621,3.65764474868774,3.65764474868774,4.27747368812561,"right",0.614451885223389,"None",NA,NA,NA,2,"GA2","2025-08-20_14h55.39.569","mlcm_experiment_whites_illusion",NA,"2025.1.1",59.9208542031561,"2025-08-20 14h55.45.926289 +0200",NA
"98",3,0.58,0.33,1,1,"imgs/white_0.58_0.33_1.0_1.0.png",3,3,0,"left",0.56837010383606,"None",0,3,3,3,4.29121065139771,NA,NA,NA,NA,NA,4.28421854972839,4.7919750213623,4.7919750213623,5.37885308265686,"left",0.56837010383606,"None",NA,NA,NA,2,"GA2","2025-08-20_14h55.39.569","mlcm_experiment_whites_illusion",NA,"2025.1.1",59.9208542031561,"2025-08-20 14h55.45.926289 +0200",NA
"99",4,0.25,0.75,0,1,"imgs/white_0.25_0.75_0.0_1.0.png",4,4,0,"right",0.603357553482056,"None",0,4,4,4,5.39408564567566,NA,NA,NA,NA,NA,5.38678526878357,5.89298105239868,5.89298105239868,6.51303267478943,"right",0.603357553482056,"None",NA,NA,NA,2,"GA2","2025-08-20_14h55.39.569","mlcm_experiment_whites_illusion",NA,"2025.1.1",59.9208542031561,"2025-08-20 14h55.45.926289 +0200",NA
"100",5,0.67,0.42,1,1,"imgs/white_0.67_0.42_1.0_1.0.png",5,5,0,"left",0.565894603729248,"None",0,5,5,5,6.52960801124573,NA,NA,NA,NA,NA,6.52416634559631,7.02738976478577,7.02738976478577,7.59697723388672,"left",0.565894603729248,"None",NA,NA,NA,2,"GA2","2025-08-20_14h55.39.569","mlcm_experiment_whites_illusion",NA,"2025.1.1",59.9208542031561,"2025-08-20 14h55.45.926289 +0200",NA
"101",6,0.5,0.33,0,0,"imgs/white_0.5_0.33_0.0_0.0.png",6,6,0,"left",0.712023735046387,"None",0,6,6,6,7.61080026626587,NA,NA,NA,NA,NA,7.60375547409058,8.11154770851135,8.11154770851135,8.8311185836792,"left",0.712023735046387,"None",NA,NA,NA,2,"GA2","2025-08-20_14h55.39.569","mlcm_experiment_whites_illusion",NA,"2025.1.1",59.9208542031561,"2025-08-20 14h55.45.926289 +0200",NA
"102",7,0.42,0.33,0,0,"imgs/white_0.42_0.33_0.0_0.0.png",7,7,0,"left",1.05455446243286,"None",0,7,7,7,8.84693765640259,NA,NA,NA,NA,NA,8.83381295204163,9.34570908546448,9.34570908546448,10.4159107208252,"left",1.05455446243286,"None",NA,NA,NA,2,"GA2","2025-08-20_14h55.39.569","mlcm_experiment_whites_illusion",NA,"2025.1.1",59.9208542031561,"2025-08-20 14h55.45.926289 +0200",NA
"103",8,0.25,0.58,0,0,"imgs/white_0.25_0.58_0.0_0.0.png",8,8,0,"right",0.653603553771973,"None",0,8,8,8,10.4296476840973,NA,NA,NA,NA,NA,10.4231803417206,10.9306318759918,10.9306318759918,11.6006488800049,"right",0.653603553771973,"None",NA,NA,NA,2,"GA2","2025-08-20_14h55.39.569","mlcm_experiment_whites_illusion",NA,"2025.1.1",59.9208542031561,"2025-08-20 14h55.45.926289 +0200",NA
"104",9,0.5,0.33,1,0,"imgs/white_0.5_0.33_1.0_0.0.png",9,9,0,"left",0.637358665466309,"None",0,9,9,9,11.61656498909,NA,NA,NA,NA,NA,11.6110229492188,12.1149537563324,12.1149537563324,12.7677731513977,"left",0.637358665466309,"None",NA,NA,NA,2,"GA2","2025-08-20_14h55.39.569","mlcm_experiment_whites_illusion",NA,"2025.1.1",59.9208542031561,"2025-08-20 14h55.45.926289 +0200",NA
"105",10,0.58,0.58,1,0,"imgs/white_0.58_0.58_1.0_0.0.png",10,10,0,"right",0.56475305557251,"None",0,10,10,10,12.7839968204498,NA,NA,NA,NA,NA,12.7771155834198,13.2837979793549,13.2837979793549,13.852607011795,"right",0.56475305557251,"None",NA,NA,NA,2,"GA2","2025-08-20_14h55.39.569","mlcm_experiment_whites_illusion",NA,"2025.1.1",59.9208542031561,"2025-08-20 14h55.45.926289 +0200",NA
"106",11,0.33,0.75,1,1,"imgs/white_0.33_0.75_1.0_1.0.png",11,11,0,"right",0.537537097930908,"None",0,11,11,11,13.8661379814148,NA,NA,NA,NA,NA,13.8606767654419,14.3667058944702,14.3667058944702,14.9200942516327,"right",0.537537097930908,"None",NA,NA,NA,2,"GA2","2025-08-20_14h55.39.569","mlcm_experiment_whites_illusion",NA,"2025.1.1",59.9208542031561,"2025-08-20 14h55.45.926289 +0200",NA
"107",12,0.58,0.75,1,1,"imgs/white_0.58_0.75_1.0_1.0.png",12,12,0,"right",0.598555088043213,"None",0,12,12,12,14.9334959983826,NA,NA,NA,NA,NA,14.9273557662964,15.4341568946838,15.4341568946838,16.0381624698639,"right",0.598555088043213,"None",NA,NA,NA,2,"GA2","2025-08-20_14h55.39.569","mlcm_experiment_whites_illusion",NA,"2025.1.1",59.9208542031561,"2025-08-20 14h55.45.926289 +0200",NA
"108",13,0.42,0.5,1,0,"imgs/white_0.42_0.5_1.0_0.0.png",13,13,0,"right",0.560479640960693,"None",0,13,13,13,16.0511150360107,NA,NA,NA,NA,NA,16.0452349185944,16.5519986152649,16.5519986152649,17.1210565567017,"right",0.560479640960693,"None",NA,NA,NA,2,"GA2","2025-08-20_14h55.39.569","mlcm_experiment_whites_illusion",NA,"2025.1.1",59.9208542031561,"2025-08-20 14h55.45.926289 +0200",NA
"109",14,0.58,0.25,1,1,"imgs/white_0.58_0.25_1.0_1.0.png",14,14,0,"left",0.620160102844238,"None",0,14,14,14,17.1353220939636,NA,NA,NA,NA,NA,17.1277635097504,17.6362204551697,17.6362204551697,18.2731754779816,"left",0.620160102844238,"None",NA,NA,NA,2,"GA2","2025-08-20_14h55.39.569","mlcm_experiment_whites_illusion",NA,"2025.1.1",59.9208542031561,"2025-08-20 14h55.45.926289 +0200",NA
"110",15,0.33,0.67,1,1,"imgs/white_0.33_0.67_1.0_1.0.png",15,15,0,"right",0.59744668006897,"None",0,15,15,15,18.288633108139,NA,NA,NA,NA,NA,18.2825541496277,18.7870125770569,18.7870125770569,19.3902542591095,"right",0.59744668006897,"None",NA,NA,NA,2,"GA2","2025-08-20_14h55.39.569","mlcm_experiment_whites_illusion",NA,"2025.1.1",59.9208542031561,"2025-08-20 14h55.45.926289 +0200",NA
"111",16,0.25,0.25,1,0,"imgs/white_0.25_0.25_1.0_0.0.png",16,16,0,"right",1.01600694656372,"None",0,16,16,16,19.4038865566254,NA,NA,NA,NA,NA,19.3980047702789,19.905327796936,19.905327796936,20.9245212078094,"right",1.01600694656372,"None",NA,NA,NA,2,"GA2","2025-08-20_14h55.39.569","mlcm_experiment_whites_illusion",NA,"2025.1.1",59.9208542031561,"2025-08-20 14h55.45.926289 +0200",NA
"112",17,0.33,0.42,1,1,"imgs/white_0.33_0.42_1.0_1.0.png",17,17,0,"right",0.568585634231567,"None",0,17,17,17,20.9411706924438,NA,NA,NA,NA,NA,20.9356541633606,21.4396164417267,21.4396164417267,22.0262567996979,"right",0.568585634231567,"None",NA,NA,NA,2,"GA2","2025-08-20_14h55.39.569","mlcm_experiment_whites_illusion",NA,"2025.1.1",59.9208542031561,"2025-08-20 14h55.45.926289 +0200",NA
"113",18,0.75,0.67,1,1,"imgs/white_0.75_0.67_1.0_1.0.png",18,18,0,"left",0.571952342987061,"None",0,18,18,18,22.0394949913025,NA,NA,NA,NA,NA,22.03355884552,22.5405588150024,22.5405588150024,23.1267549991608,"left",0.571952342987061,"None",NA,NA,NA,2,"GA2","2025-08-20_14h55.39.569","mlcm_experiment_whites_illusion",NA,"2025.1.1",59.9208542031561,"2025-08-20 14h55.45.926289 +0200",NA
"114",19,0.25,0.67,0,0,"imgs/white_0.25_0.67_0.0_0.0.png",19,19,0,"right",0.639548778533936,"None",0,19,19,19,23.1404016017914,NA,NA,NA,NA,NA,23.1339290142059,23.6412806510925,23.6412806510925,24.2945778369904,"right",0.639548778533936,"None",NA,NA,NA,2,"GA2","2025-08-20_14h55.39.569","mlcm_experiment_whites_illusion",NA,"2025.1.1",59.9208542031561,"2025-08-20 14h55.45.926289 +0200",NA
"115",20,0.42,0.42,1,0,"imgs/white_0.42_0.42_1.0_0.0.png",20,20,0,"right",0.543882369995117,"None",0,20,20,20,24.3086428642273,NA,NA,NA,NA,NA,24.3026525974274,24.8086812496185,24.8086812496185,25.3620884418488,"right",0.543882369995117,"None",NA,NA,NA,2,"GA2","2025-08-20_14h55.39.569","mlcm_experiment_whites_illusion",NA,"2025.1.1",59.9208542031561,"2025-08-20 14h55.45.926289 +0200",NA
"116",21,0.5,0.75,1,0,"imgs/white_0.5_0.75_1.0_0.0.png",21,21,0,"right",0.588174343109131,"None",0,21,21,21,25.3777074813843,NA,NA,NA,NA,NA,25.3695788383484,25.8765008449554,25.8765008449554,26.4796357154846,"right",0.588174343109131,"None",NA,NA,NA,2,"GA2","2025-08-20_14h55.39.569","mlcm_experiment_whites_illusion",NA,"2025.1.1",59.9208542031561,"2025-08-20 14h55.45.926289 +0200",NA
"117",22,0.33,0.58,0,0,"imgs/white_0.33_0.58_0.0_0.0.png",22,22,0,"right",0.542542457580566,"None",0,22,22,22,26.4974453449249,NA,NA,NA,NA,NA,26.49178647995,26.9938580989838,26.9938580989838,27.5474395751953,"right",0.542542457580566,"None",NA,NA,NA,2,"GA2","2025-08-20_14h55.39.569","mlcm_experiment_whites_illusion",NA,"2025.1.1",59.9208542031561,"2025-08-20 14h55.45.926289 +0200",NA
"118",23,0.25,0.67,1,1,"imgs/white_0.25_0.67_1.0_1.0.png",23,23,0,"right",0.555044412612915,"None",0,23,23,23,27.5606052875519,NA,NA,NA,NA,NA,27.5548388957977,28.0614521503448,28.0614521503448,28.6314563751221,"right",0.555044412612915,"None",NA,NA,NA,2,"GA2","2025-08-20_14h55.39.569","mlcm_experiment_whites_illusion",NA,"2025.1.1",59.9208542031561,"2025-08-20 14h55.45.926289 +0200",NA
"119",24,0.67,0.67,1,0,"imgs/white_0.67_0.67_1.0_0.0.png",24,24,0,"right",1.03847074508667,"None",0,24,24,24,28.6448867321014,NA,NA,NA,NA,NA,28.6385333538055,29.1460018157959,29.1460018157959,30.1995878219604,"right",1.03847074508667,"None",NA,NA,NA,2,"GA2","2025-08-20_14h55.39.569","mlcm_experiment_whites_illusion",NA,"2025.1.1",59.9208542031561,"2025-08-20 14h55.45.926289 +0200",NA
"120",25,0.33,0.25,1,0,"imgs/white_0.33_0.25_1.0_0.0.png",25,25,0,"right",1.58355665206909,"None",0,25,25,25,30.2127511501312,NA,NA,NA,NA,NA,30.2062122821808,30.7137961387634,30.7137961387634,32.300713300705,"right",1.58355665206909,"None",NA,NA,NA,2,"GA2","2025-08-20_14h55.39.569","mlcm_experiment_whites_illusion",NA,"2025.1.1",59.9208542031561,"2025-08-20 14h55.45.926289 +0200",NA
"121",26,0.75,0.25,0,0,"imgs/white_0.75_0.25_0.0_0.0.png",26,26,0,"left",0.873087167739868,"None",0,26,26,26,32.3147165775299,NA,NA,NA,NA,NA,32.3113372325897,32.815593957901,32.815593957901,33.7026906013489,"left",0.873087167739868,"None",NA,NA,NA,2,"GA2","2025-08-20_14h55.39.569","mlcm_experiment_whites_illusion",NA,"2025.1.1",59.9208542031561,"2025-08-20 14h55.45.926289 +0200",NA
"122",27,0.5,0.58,1,1,"imgs/white_0.5_0.58_1.0_1.0.png",27,27,0,"right",0.648066997528076,"None",0,27,27,27,33.7179141044617,NA,NA,NA,NA,NA,33.712760925293,34.216748714447,34.216748714447,34.8704922199249,"right",0.648066997528076,"None",NA,NA,NA,2,"GA2","2025-08-20_14h55.39.569","mlcm_experiment_whites_illusion",NA,"2025.1.1",59.9208542031561,"2025-08-20 14h55.45.926289 +0200",NA
"123",28,0.33,0.33,0,1,"imgs/white_0.33_0.33_0.0_1.0.png",28,28,0,"left",1.70437502861023,"None",0,28,28,28,34.8836126327515,NA,NA,NA,NA,NA,34.8771653175354,35.3843364715576,35.3843364715576,37.1057462692261,"left",1.70437502861023,"None",NA,NA,NA,2,"GA2","2025-08-20_14h55.39.569","mlcm_experiment_whites_illusion",NA,"2025.1.1",59.9208542031561,"2025-08-20 14h55.45.926289 +0200",NA
"124",29,0.58,0.42,1,0,"imgs/white_0.58_0.42_1.0_0.0.png",29,29,0,"left",0.788960695266724,"None",0,29,29,29,37.1222603321075,NA,NA,NA,NA,NA,37.117005109787,37.6198461055756,37.6198461055756,38.4234037399292,"left",0.788960695266724,"None",NA,NA,NA,2,"GA2","2025-08-20_14h55.39.569","mlcm_experiment_whites_illusion",NA,"2025.1.1",59.9208542031561,"2025-08-20 14h55.45.926289 +0200",NA
"125",30,0.5,0.5,1,0,"imgs/white_0.5_0.5_1.0_0.0.png",30,30,0,"right",0.583522796630859,"None",0,30,30,30,38.4369540214539,NA,NA,NA,NA,NA,38.4314756393433,38.9373443126678,38.9373443126678,39.5404946804047,"right",0.583522796630859,"None",NA,NA,NA,2,"GA2","2025-08-20_14h55.39.569","mlcm_experiment_whites_illusion",NA,"2025.1.1",59.9208542031561,"2025-08-20 14h55.45.926289 +0200",NA
"126",31,0.67,0.25,0,1,"imgs/white_0.67_0.25_0.0_1.0.png",31,31,0,"left",0.578136444091797,"None",0,31,31,31,39.558210849762,NA,NA,NA,NA,NA,39.5523951053619,40.054815530777,40.054815530777,40.6419069766998,"left",0.578136444091797,"None",NA,NA,NA,2,"GA2","2025-08-20_14h55.39.569","mlcm_experiment_whites_illusion",NA,"2025.1.1",59.9208542031561,"2025-08-20 14h55.45.926289 +0200",NA
"127",32,0.33,0.25,1,1,"imgs/white_0.33_0.25_1.0_1.0.png",32,32,0,"left",0.668840646743774,"None",0,32,32,32,40.6571810245514,NA,NA,NA,NA,NA,40.6486260890961,41.1560101509094,41.1560101509094,41.8426439762115,"left",0.668840646743774,"None",NA,NA,NA,2,"GA2","2025-08-20_14h55.39.569","mlcm_experiment_whites_illusion",NA,"2025.1.1",59.9208542031561,"2025-08-20 14h55.45.926289 +0200",NA
"128",33,0.58,0.42,0,0,"imgs/white_0.58_0.42_0.0_0.0.png",33,33,0,"left",0.635812520980835,"None",0,33,33,33,41.8559215068817,NA,NA,NA,NA,NA,41.8502218723297,42.3571326732635,42.3571326732635,43.0105011463165,"left",0.635812520980835,"None",NA,NA,NA,2,"GA2","2025-08-20_14h55.39.569","mlcm_experiment_whites_illusion",NA,"2025.1.1",59.9208542031561,"2025-08-20 14h55.45.926289 +0200",NA
"129",34,0.25,0.58,1,0,"imgs/white_0.25_0.58_1.0_0.0.png",34,34,0,"right",0.508899211883545,"None",0,34,34,34,43.0237829685211,NA,NA,NA,NA,NA,43.0178334712982,43.5239381790161,43.5239381790161,44.044707775116,"right",0.508899211883545,"None",NA,NA,NA,2,"GA2","2025-08-20_14h55.39.569","mlcm_experiment_whites_illusion",NA,"2025.1.1",59.9208542031561,"2025-08-20 14h55.45.926289 +0200",NA
"130",35,0.25,0.33,1,0,"imgs/white_0.25_0.33_1.0_0.0.png",35,35,0,"right",0.594171762466431,"None",0,35,35,35,44.0581376552582,NA,NA,NA,NA,NA,44.0528643131256,44.5586562156677,44.5586562156677,45.1621029376984,"right",0.594171762466431,"None",NA,NA,NA,2,"GA2","2025-08-20_14h55.39.569","mlcm_experiment_whites_illusion",NA,"2025.1.1",59.9208542031561,"2025-08-20 14h55.45.926289 +0200",NA
"131",36,0.58,0.67,0,1,"imgs/white_0.58_0.67_0.0_1.0.png",36,36,0,"left",0.556617259979248,"None",0,36,36,36,45.1757898330688,NA,NA,NA,NA,NA,45.1717481613159,45.6763663291931,45.6763663291931,46.2463624477386,"left",0.556617259979248,"None",NA,NA,NA,2,"GA2","2025-08-20_14h55.39.569","mlcm_experiment_whites_illusion",NA,"2025.1.1",59.9208542031561,"2025-08-20 14h55.45.926289 +0200",NA
"132",37,0.75,0.58,0,0,"imgs/white_0.75_0.58_0.0_0.0.png",37,37,0,"left",0.608347177505493,"None",0,37,37,37,46.2618646621704,NA,NA,NA,NA,NA,46.2547190189362,46.7608199119568,46.7608199119568,47.3802309036255,"left",0.608347177505493,"None",NA,NA,NA,2,"GA2","2025-08-20_14h55.39.569","mlcm_experiment_whites_illusion",NA,"2025.1.1",59.9208542031561,"2025-08-20 14h55.45.926289 +0200",NA
"133",38,0.75,0.42,1,0,"imgs/white_0.75_0.42_1.0_0.0.png",38,38,0,"left",0.690380096435547,"None",0,38,38,38,47.3939619064331,NA,NA,NA,NA,NA,47.387113571167,47.8947646617889,47.8947646617889,48.5982887744904,"left",0.690380096435547,"None",NA,NA,NA,2,"GA2","2025-08-20_14h55.39.569","mlcm_experiment_whites_illusion",NA,"2025.1.1",59.9208542031561,"2025-08-20 14h55.45.926289 +0200",NA
"134",39,0.67,0.75,1,0,"imgs/white_0.67_0.75_1.0_0.0.png",39,39,0,"right",0.512102603912354,"None",0,39,39,39,48.6144576072693,NA,NA,NA,NA,NA,48.6089687347412,49.1127827167511,49.1127827167511,49.6326856613159,"right",0.512102603912354,"None",NA,NA,NA,2,"GA2","2025-08-20_14h55.39.569","mlcm_experiment_whites_illusion",NA,"2025.1.1",59.9208542031561,"2025-08-20 14h55.45.926289 +0200",NA
"135",40,0.5,0.58,0,1,"imgs/white_0.5_0.58_0.0_1.0.png",40,40,0,"left",0.598112821578979,"None",0,40,40,40,49.6463625431061,NA,NA,NA,NA,NA,49.6402018070221,50.1469397544861,50.1469397544861,50.7503457069397,"left",0.598112821578979,"None",NA,NA,NA,2,"GA2","2025-08-20_14h55.39.569","mlcm_experiment_whites_illusion",NA,"2025.1.1",59.9208542031561,"2025-08-20 14h55.45.926289 +0200",NA
"136",41,0.75,0.58,1,0,"imgs/white_0.75_0.58_1.0_0.0.png",41,41,0,"right",1.38450932502747,"None",0,41,41,41,50.7637915611267,NA,NA,NA,NA,NA,50.7578694820404,51.2646427154541,51.2646427154541,52.6683709621429,"right",1.38450932502747,"None",NA,NA,NA,2,"GA2","2025-08-20_14h55.39.569","mlcm_experiment_whites_illusion",NA,"2025.1.1",59.9208542031561,"2025-08-20 14h55.45.926289 +0200",NA
"137",42,0.67,0.5,1,0,"imgs/white_0.67_0.5_1.0_0.0.png",42,42,0,"right",0.618063449859619,"None",0,42,42,42,52.6841578483582,NA,NA,NA,NA,NA,52.6787121295929,53.1829416751862,53.1829416751862,53.8194582462311,"right",0.618063449859619,"None",NA,NA,NA,2,"GA2","2025-08-20_14h55.39.569","mlcm_experiment_whites_illusion",NA,"2025.1.1",59.9208542031561,"2025-08-20 14h55.45.926289 +0200",NA
"138",43,0.67,0.25,1,0,"imgs/white_0.67_0.25_1.0_0.0.png",43,43,0,"left",0.595239877700806,"None",0,43,43,43,53.8349170684814,NA,NA,NA,NA,NA,53.8263378143311,54.3338067531586,54.3338067531586,54.9363062381744,"left",0.595239877700806,"None",NA,NA,NA,2,"GA2","2025-08-20_14h55.39.569","mlcm_experiment_whites_illusion",NA,"2025.1.1",59.9208542031561,"2025-08-20 14h55.45.926289 +0200",NA
"139",44,0.75,0.75,1,0,"imgs/white_0.75_0.75_1.0_0.0.png",44,44,0,"right",0.597642183303833,"None",0,44,44,44,54.9522936344147,NA,NA,NA,NA,NA,54.9438841342926,55.4515202045441,55.4515202045441,56.0544066429138,"right",0.597642183303833,"None",NA,NA,NA,2,"GA2","2025-08-20_14h55.39.569","mlcm_experiment_whites_illusion",NA,"2025.1.1",59.9208542031561,"2025-08-20 14h55.45.926289 +0200",NA
"140",45,0.75,0.33,1,0,"imgs/white_0.75_0.33_1.0_0.0.png",45,45,0,"left",0.648293972015381,"None",0,45,45,45,56.0682034492493,NA,NA,NA,NA,NA,56.0622792243958,56.5690252780914,56.5690252780914,57.2225110530853,"left",0.648293972015381,"None",NA,NA,NA,2,"GA2","2025-08-20_14h55.39.569","mlcm_experiment_whites_illusion",NA,"2025.1.1",59.9208542031561,"2025-08-20 14h55.45.926289 +0200",NA
"141",46,0.67,0.5,0,0,"imgs/white_0.67_0.5_0.0_0.0.png",46,46,0,"left",0.592578172683716,"None",0,46,46,46,57.2359826564789,NA,NA,NA,NA,NA,57.2299516201019,57.7365679740906,57.7365679740906,58.3395657539368,"left",0.592578172683716,"None",NA,NA,NA,2,"GA2","2025-08-20_14h55.39.569","mlcm_experiment_whites_illusion",NA,"2025.1.1",59.9208542031561,"2025-08-20 14h55.45.926289 +0200",NA
"142",47,0.5,0.25,1,1,"imgs/white_0.5_0.25_1.0_1.0.png",47,47,0,"left",0.650977373123169,"None",0,47,47,47,58.3554968833923,NA,NA,NA,NA,NA,58.3475790023804,58.8540942668915,58.8540942668915,59.5081770420074,"left",0.650977373123169,"None",NA,NA,NA,2,"GA2","2025-08-20_14h55.39.569","mlcm_experiment_whites_illusion",NA,"2025.1.1",59.9208542031561,"2025-08-20 14h55.45.926289 +0200",NA
"143",48,0.42,0.33,1,0,"imgs/white_0.42_0.33_1.0_0.0.png",48,48,0,"right",1.41156697273254,"None",0,48,48,48,59.5276739597321,NA,NA,NA,NA,NA,59.5201137065887,60.0216603279114,60.0216603279114,61.4422123432159,"right",1.41156697273254,"None",NA,NA,NA,2,"GA2","2025-08-20_14h55.39.569","mlcm_experiment_whites_illusion",NA,"2025.1.1",59.9208542031561,"2025-08-20 14h55.45.926289 +0200",NA
"144",49,0.5,0.67,1,0,"imgs/white_0.5_0.67_1.0_0.0.png",49,49,0,"right",0.492384195327759,"None",0,49,49,49,61.4561438560486,NA,NA,NA,NA,NA,61.4494671821594,61.9568386077881,61.9568386077881,62.4597821235657,"right",0.492384195327759,"None",NA,NA,NA,2,"GA2","2025-08-20_14h55.39.569","mlcm_experiment_whites_illusion",NA,"2025.1.1",59.9208542031561,"2025-08-20 14h55.45.926289 +0200",NA
"145",50,0.42,0.67,0,0,"imgs/white_0.42_0.67_0.0_0.0.png",50,50,0,"right",0.770868062973022,"None",0,50,50,50,62.4753675460815,NA,NA,NA,NA,NA,62.4683196544647,62.9743027687073,62.9743027687073,63.7606317996979,"right",0.770868062973022,"None",NA,NA,NA,2,"GA2","2025-08-20_14h55.39.569","mlcm_experiment_whites_illusion",NA,"2025.1.1",59.9208542031561,"2025-08-20 14h55.45.926289 +0200",NA
"146",51,0.33,0.5,1,0,"imgs/white_0.33_0.5_1.0_0.0.png",51,51,0,"right",0.525680303573608,"None",0,51,51,51,63.7767670154572,NA,NA,NA,NA,NA,63.7686336040497,64.2755465507507,64.2755465507507,64.8119525909424,"right",0.525680303573608,"None",NA,NA,NA,2,"GA2","2025-08-20_14h55.39.569","mlcm_experiment_whites_illusion",NA,"2025.1.1",59.9208542031561,"2025-08-20 14h55.45.926289 +0200",NA
"147",52,0.25,0.42,1,1,"imgs/white_0.25_0.42_1.0_1.0.png",52,52,0,"right",0.58718729019165,"None",0,52,52,52,64.827544927597,NA,NA,NA,NA,NA,64.8201680183411,65.3262546062469,65.3262546062469,65.9296133518219,"right",0.58718729019165,"None",NA,NA,NA,2,"GA2","2025-08-20_14h55.39.569","mlcm_experiment_whites_illusion",NA,"2025.1.1",59.9208542031561,"2025-08-20 14h55.45.926289 +0200",NA
"148",53,0.75,0.33,0,0,"imgs/white_0.75_0.33_0.0_0.0.png",53,53,0,"left",0.62921667098999,"None",0,53,53,53,65.9453694820404,NA,NA,NA,NA,NA,65.9365549087524,66.4440829753876,66.4440829753876,67.0799448490143,"left",0.62921667098999,"None",NA,NA,NA,2,"GA2","2025-08-20_14h55.39.569","mlcm_experiment_whites_illusion",NA,"2025.1.1",59.9208542031561,"2025-08-20 14h55.45.926289 +0200",NA
"149",54,0.5,0.67,1,1,"imgs/white_0.5_0.67_1.0_1.0.png",54,54,0,"right",0.678262710571289,"None",0,54,54,54,67.0939326286316,NA,NA,NA,NA,NA,67.0880680084229,67.5950546264648,67.5950546264648,68.2817106246948,"right",0.678262710571289,"None",NA,NA,NA,2,"GA2","2025-08-20_14h55.39.569","mlcm_experiment_whites_illusion",NA,"2025.1.1",59.9208542031561,"2025-08-20 14h55.45.926289 +0200",NA
"150",55,0.67,0.58,1,1,"imgs/white_0.67_0.58_1.0_1.0.png",55,55,0,"left",0.750402450561523,"None",0,55,55,55,68.2971959114075,NA,NA,NA,NA,NA,68.2897245883942,68.7953670024872,68.7953670024872,69.5489234924316,"left",0.750402450561523,"None",NA,NA,NA,2,"GA2","2025-08-20_14h55.39.569","mlcm_experiment_whites_illusion",NA,"2025.1.1",59.9208542031561,"2025-08-20 14h55.45.926289 +0200",NA
"151",56,0.5,0.75,0,0,"imgs/white_0.5_0.75_0.0_0.0.png",56,56,0,"right",0.58544135093689,"None",0,56,56,56,69.5649907588959,NA,NA,NA,NA,NA,69.5584905147552,70.0639111995697,70.0639111995697,70.6670682430267,"right",0.58544135093689,"None",NA,NA,NA,2,"GA2","2025-08-20_14h55.39.569","mlcm_experiment_whites_illusion",NA,"2025.1.1",59.9208542031561,"2025-08-20 14h55.45.926289 +0200",NA
"152",57,0.25,0.33,0,0,"imgs/white_0.25_0.33_0.0_0.0.png",57,57,0,"right",1.73202395439148,"None",0,57,57,57,70.6806318759918,NA,NA,NA,NA,NA,70.6751911640167,71.1813142299652,71.1813142299652,72.9185819625854,"right",1.73202395439148,"None",NA,NA,NA,2,"GA2","2025-08-20_14h55.39.569","mlcm_experiment_whites_illusion",NA,"2025.1.1",59.9208542031561,"2025-08-20 14h55.45.926289 +0200",NA
"153",58,0.67,0.33,0,1,"imgs/white_0.67_0.33_0.0_1.0.png",58,58,0,"left",0.880110025405884,"None",0,58,58,58,72.9344129562378,NA,NA,NA,NA,NA,72.9290614128113,73.4334564208984,73.4334564208984,74.3201794624329,"left",0.880110025405884,"None",NA,NA,NA,2,"GA2","2025-08-20_14h55.39.569","mlcm_experiment_whites_illusion",NA,"2025.1.1",59.9208542031561,"2025-08-20 14h55.45.926289 +0200",NA
"154",59,0.67,0.75,0,1,"imgs/white_0.67_0.75_0.0_1.0.png",59,59,0,"left",0.647351980209351,"None",0,59,59,59,74.3341481685638,NA,NA,NA,NA,NA,74.3280799388885,74.8344247341156,74.8344247341156,75.4870336055756,"left",0.647351980209351,"None",NA,NA,NA,2,"GA2","2025-08-20_14h55.39.569","mlcm_experiment_whites_illusion",NA,"2025.1.1",59.9208542031561,"2025-08-20 14h55.45.926289 +0200",NA
"155",60,0.42,0.75,1,0,"imgs/white_0.42_0.75_1.0_0.0.png",60,60,0,"right",0.583309173583984,"None",0,60,60,60,75.5031962394714,NA,NA,NA,NA,NA,75.4969353675842,76.0020227432251,76.0020227432251,76.5886554718018,"right",0.583309173583984,"None",NA,NA,NA,2,"GA2","2025-08-20_14h55.39.569","mlcm_experiment_whites_illusion",NA,"2025.1.1",59.9208542031561,"2025-08-20 14h55.45.926289 +0200",NA
"156",61,0.33,0.58,0,1,"imgs/white_0.33_0.58_0.0_1.0.png",61,61,0,"right",1.41812586784363,"None",0,61,61,61,76.6024239063263,NA,NA,NA,NA,NA,76.596333026886,77.1030254364014,77.1030254364014,78.5400161743164,"right",1.41812586784363,"None",NA,NA,NA,2,"GA2","2025-08-20_14h55.39.569","mlcm_experiment_whites_illusion",NA,"2025.1.1",59.9208542031561,"2025-08-20 14h55.45.926289 +0200",NA
"157",62,0.42,0.75,1,1,"imgs/white_0.42_0.75_1.0_1.0.png",62,62,0,"right",0.594906806945801,"None",0,62,62,62,78.5562942028046,NA,NA,NA,NA,NA,78.5506732463837,79.0547196865082,79.0547196865082,79.6570615768433,"right",0.594906806945801,"None",NA,NA,NA,2,"GA2","2025-08-20_14h55.39.569","mlcm_experiment_whites_illusion",NA,"2025.1.1",59.9208542031561,"2025-08-20 14h55.45.926289 +0200",NA
"158",63,0.5,0.42,0,0,"imgs/white_0.5_0.42_0.0_0.0.png",63,63,0,"left",0.74949049949646,"None",0,63,63,63,79.6735682487488,NA,NA,NA,NA,NA,79.6648621559143,80.1722884178162,80.1722884178162,80.925288438797,"left",0.74949049949646,"None",NA,NA,NA,2,"GA2","2025-08-20_14h55.39.569","mlcm_experiment_whites_illusion",NA,"2025.1.1",59.9208542031561,"2025-08-20 14h55.45.926289 +0200",NA
"159",64,0.5,0.25,0,0,"imgs/white_0.5_0.25_0.0_0.0.png",64,64,0,"left",0.585589647293091,"None",0,64,64,64,80.939147233963,NA,NA,NA,NA,NA,80.9338476657867,81.440048456192,81.440048456192,82.0432057380676,"left",0.585589647293091,"None",NA,NA,NA,2,"GA2","2025-08-20_14h55.39.569","mlcm_experiment_whites_illusion",NA,"2025.1.1",59.9208542031561,"2025-08-20 14h55.45.926289 +0200",NA
"160",65,0.33,0.67,0,1,"imgs/white_0.33_0.67_0.0_1.0.png",65,65,0,"right",0.660089492797852,"None",0,65,65,65,82.0567700862885,NA,NA,NA,NA,NA,82.0504786968231,82.5573663711548,82.5573663711548,83.2274441719055,"right",0.660089492797852,"None",NA,NA,NA,2,"GA2","2025-08-20_14h55.39.569","mlcm_experiment_whites_illusion",NA,"2025.1.1",59.9208542031561,"2025-08-20 14h55.45.926289 +0200",NA
"161",66,0.58,0.5,0,0,"imgs/white_0.58_0.5_0.0_0.0.png",66,66,0,"left",1.18762564659119,"None",0,66,66,66,83.2429387569427,NA,NA,NA,NA,NA,83.2350153923035,83.7419481277466,83.7419481277466,84.9456706047058,"left",1.18762564659119,"None",NA,NA,NA,2,"GA2","2025-08-20_14h55.39.569","mlcm_experiment_whites_illusion",NA,"2025.1.1",59.9208542031561,"2025-08-20 14h55.45.926289 +0200",NA
"162",67,0.25,0.75,1,1,"imgs/white_0.25_0.75_1.0_1.0.png",67,67,0,"right",0.693591833114624,"None",0,67,67,67,84.9622037410736,NA,NA,NA,NA,NA,84.9567565917969,85.4600977897644,85.4600977897644,86.1642866134644,"right",0.693591833114624,"None",NA,NA,NA,2,"GA2","2025-08-20_14h55.39.569","mlcm_experiment_whites_illusion",NA,"2025.1.1",59.9208542031561,"2025-08-20 14h55.45.926289 +0200",NA
"163",68,0.5,0.25,1,0,"imgs/white_0.5_0.25_1.0_0.0.png",68,68,0,"left",0.675865650177002,"None",0,68,68,68,86.178808927536,NA,NA,NA,NA,NA,86.1720993518829,86.6775813102722,86.6775813102722,87.3634870052338,"left",0.675865650177002,"None",NA,NA,NA,2,"GA2","2025-08-20_14h55.39.569","mlcm_experiment_whites_illusion",NA,"2025.1.1",59.9208542031561,"2025-08-20 14h55.45.926289 +0200",NA
"164",69,0.67,0.58,0,0,"imgs/white_0.67_0.58_0.0_0.0.png",69,69,0,"left",1.49910640716553,"None",0,69,69,69,87.37979388237,NA,NA,NA,NA,NA,87.3715798854828,87.8787026405334,87.8787026405334,89.3833601474762,"left",1.49910640716553,"None",NA,NA,NA,2,"GA2","2025-08-20_14h55.39.569","mlcm_experiment_whites_illusion",NA,"2025.1.1",59.9208542031561,"2025-08-20 14h55.45.926289 +0200",NA
"165",70,0.33,0.42,1,0,"imgs/white_0.33_0.42_1.0_0.0.png",70,70,0,"right",0.496754169464111,"None",0,70,70,70,89.3988108634949,NA,NA,NA,NA,NA,89.3934116363525,89.8970658779144,89.8970658779144,90.400032043457,"right",0.496754169464111,"None",NA,NA,NA,2,"GA2","2025-08-20_14h55.39.569","mlcm_experiment_whites_illusion",NA,"2025.1.1",59.9208542031561,"2025-08-20 14h55.45.926289 +0200",NA
"166",71,0.58,0.42,0,1,"imgs/white_0.58_0.42_0.0_1.0.png",71,71,0,"left",0.535344839096069,"None",0,71,71,71,90.415965795517,NA,NA,NA,NA,NA,90.406928062439,90.9145355224609,90.9145355224609,91.4678983688354,"left",0.535344839096069,"None",NA,NA,NA,2,"GA2","2025-08-20_14h55.39.569","mlcm_experiment_whites_illusion",NA,"2025.1.1",59.9208542031561,"2025-08-20 14h55.45.926289 +0200",NA
"167",72,0.5,0.58,1,0,"imgs/white_0.5_0.58_1.0_0.0.png",72,72,0,"right",0.763819217681885,"None",0,72,72,72,91.4832565784454,NA,NA,NA,NA,NA,91.4778144359589,91.9821391105652,91.9821391105652,92.7512671947479,"right",0.763819217681885,"None",NA,NA,NA,2,"GA2","2025-08-20_14h55.39.569","mlcm_experiment_whites_illusion",NA,"2025.1.1",59.9208542031561,"2025-08-20 14h55.45.926289 +0200",NA
"168",73,0.25,0.42,1,0,"imgs/white_0.25_0.42_1.0_0.0.png",73,73,0,"right",0.511426687240601,"None",0,73,73,73,92.7679290771484,NA,NA,NA,NA,NA,92.7587833404541,93.2664637565613,93.2664637565613,93.78608751297,"right",0.511426687240601,"None",NA,NA,NA,2,"GA2","2025-08-20_14h55.39.569","mlcm_experiment_whites_illusion",NA,"2025.1.1",59.9208542031561,"2025-08-20 14h55.45.926289 +0200",NA
"169",74,0.67,0.42,1,0,"imgs/white_0.67_0.42_1.0_0.0.png",74,74,0,"left",0.741302967071533,"None",0,74,74,74,93.7998294830322,NA,NA,NA,NA,NA,93.7935476303101,94.3009481430054,94.3009481430054,95.0544662475586,"left",0.741302967071533,"None",NA,NA,NA,2,"GA2","2025-08-20_14h55.39.569","mlcm_experiment_whites_illusion",NA,"2025.1.1",59.9208542031561,"2025-08-20 14h55.45.926289 +0200",NA
"170",75,0.75,0.58,0,1,"imgs/white_0.75_0.58_0.0_1.0.png",75,75,0,"left",0.529391527175903,"None",0,75,75,75,95.0682857036591,NA,NA,NA,NA,NA,95.0616106987,95.5684852600098,95.5684852600098,96.1044199466705,"left",0.529391527175903,"None",NA,NA,NA,2,"GA2","2025-08-20_14h55.39.569","mlcm_experiment_whites_illusion",NA,"2025.1.1",59.9208542031561,"2025-08-20 14h55.45.926289 +0200",NA
"171",76,0.75,0.5,1,1,"imgs/white_0.75_0.5_1.0_1.0.png",76,76,0,"left",0.766535520553589,"None",0,76,76,76,96.1191821098328,NA,NA,NA,NA,NA,96.111704826355,96.6195347309113,96.6195347309113,97.3899714946747,"left",0.766535520553589,"None",NA,NA,NA,2,"GA2","2025-08-20_14h55.39.569","mlcm_experiment_whites_illusion",NA,"2025.1.1",59.9208542031561,"2025-08-20 14h55.45.926289 +0200",NA
"172",77,0.75,0.33,0,1,"imgs/white_0.75_0.33_0.0_1.0.png",77,77,0,"left",0.537822484970093,"None",0,77,77,77,97.403505563736,NA,NA,NA,NA,NA,97.3971147537231,97.9039256572723,97.9039256572723,98.457373380661,"left",0.537822484970093,"None",NA,NA,NA,2,"GA2","2025-08-20_14h55.39.569","mlcm_experiment_whites_illusion",NA,"2025.1.1",59.9208542031561,"2025-08-20 14h55.45.926289 +0200",NA
"173",78,0.58,0.67,1,0,"imgs/white_0.58_0.67_1.0_0.0.png",78,78,0,"right",0.694581508636475,"None",0,78,78,78,98.4741241931915,NA,NA,NA,NA,NA,98.468466758728,98.9714345932007,98.9714345932007,99.6747047901154,"right",0.694581508636475,"None",NA,NA,NA,2,"GA2","2025-08-20_14h55.39.569","mlcm_experiment_whites_illusion",NA,"2025.1.1",59.9208542031561,"2025-08-20 14h55.45.926289 +0200",NA
"174",79,0.5,0.25,0,1,"imgs/white_0.5_0.25_0.0_1.0.png",79,79,0,"left",0.573007345199585,"None",0,79,79,79,99.6904180049896,NA,NA,NA,NA,NA,99.6814060211182,100.189005851746,100.189005851746,100.775374174118,"left",0.573007345199585,"None",NA,NA,NA,2,"GA2","2025-08-20_14h55.39.569","mlcm_experiment_whites_illusion",NA,"2025.1.1",59.9208542031561,"2025-08-20 14h55.45.926289 +0200",NA
"175",80,0.25,0.75,1,0,"imgs/white_0.25_0.75_1.0_0.0.png",80,80,0,"right",0.608000993728638,"None",0,80,80,80,100.789593219757,NA,NA,NA,NA,NA,100.783028841019,101.289959669113,101.289959669113,101.910149335861,"right",0.608000993728638,"None",NA,NA,NA,2,"GA2","2025-08-20_14h55.39.569","mlcm_experiment_whites_illusion",NA,"2025.1.1",59.9208542031561,"2025-08-20 14h55.45.926289 +0200",NA
"176",81,0.67,0.75,0,0,"imgs/white_0.67_0.75_0.0_0.0.png",81,81,0,"right",0.666145086288452,"None",0,81,81,81,101.925384521484,NA,NA,NA,NA,NA,101.918187141418,102.424349308014,102.424349308014,103.094033956528,"right",0.666145086288452,"None",NA,NA,NA,2,"GA2","2025-08-20_14h55.39.569","mlcm_experiment_whites_illusion",NA,"2025.1.1",59.9208542031561,"2025-08-20 14h55.45.926289 +0200",NA
"177",82,0.58,0.33,0,1,"imgs/white_0.58_0.33_0.0_1.0.png",82,82,0,"left",0.633318185806274,"None",0,82,82,82,103.108045816422,NA,NA,NA,NA,NA,103.101617097855,103.608515501022,103.608515501022,104.245237350464,"left",0.633318185806274,"None",NA,NA,NA,2,"GA2","2025-08-20_14h55.39.569","mlcm_experiment_whites_illusion",NA,"2025.1.1",59.9208542031561,"2025-08-20 14h55.45.926289 +0200",NA
"178",83,0.5,0.33,1,1,"imgs/white_0.5_0.33_1.0_1.0.png",83,83,0,"left",0.682782173156738,"None",0,83,83,83,104.259055376053,NA,NA,NA,NA,NA,104.253195285797,104.759507656097,104.759507656097,105.445826530457,"left",0.682782173156738,"None",NA,NA,NA,2,"GA2","2025-08-20_14h55.39.569","mlcm_experiment_whites_illusion",NA,"2025.1.1",59.9208542031561,"2025-08-20 14h55.45.926289 +0200",NA
"179",84,0.42,0.5,0,1,"imgs/white_0.42_0.5_0.0_1.0.png",84,84,0,"left",0.785366773605347,"None",0,84,84,84,105.460076332092,NA,NA,NA,NA,NA,105.453196048737,105.960745096207,105.960745096207,106.764367103577,"left",0.785366773605347,"None",NA,NA,NA,2,"GA2","2025-08-20_14h55.39.569","mlcm_experiment_whites_illusion",NA,"2025.1.1",59.9208542031561,"2025-08-20 14h55.45.926289 +0200",NA
"180",85,0.5,0.75,0,1,"imgs/white_0.5_0.75_0.0_1.0.png",85,85,0,"right",0.907824993133545,"None",0,85,85,85,106.779526472092,NA,NA,NA,NA,NA,106.772946834564,107.27830696106,107.27830696106,108.19845199585,"right",0.907824993133545,"None",NA,NA,NA,2,"GA2","2025-08-20_14h55.39.569","mlcm_experiment_whites_illusion",NA,"2025.1.1",59.9208542031561,"2025-08-20 14h55.45.926289 +0200",NA
"181",86,0.42,0.75,0,0,"imgs/white_0.42_0.75_0.0_0.0.png",86,86,0,"right",0.561126947402954,"None",0,86,86,86,108.212158679962,NA,NA,NA,NA,NA,108.205188274384,108.713110685349,108.713110685349,109.282383441925,"right",0.561126947402954,"None",NA,NA,NA,2,"GA2","2025-08-20_14h55.39.569","mlcm_experiment_whites_illusion",NA,"2025.1.1",59.9208542031561,"2025-08-20 14h55.45.926289 +0200",NA
"182",87,0.25,0.42,0,0,"imgs/white_0.25_0.42_0.0_0.0.png",87,87,0,"right",0.660839557647705,"None",0,87,87,87,109.296444416046,NA,NA,NA,NA,NA,109.289140939713,109.797422885895,109.797422885895,110.466792106628,"right",0.660839557647705,"None",NA,NA,NA,2,"GA2","2025-08-20_14h55.39.569","mlcm_experiment_whites_illusion",NA,"2025.1.1",59.9208542031561,"2025-08-20 14h55.45.926289 +0200",NA
"183",88,0.42,0.58,1,1,"imgs/white_0.42_0.58_1.0_1.0.png",88,88,0,"right",0.668706655502319,"None",0,88,88,88,110.482687950134,NA,NA,NA,NA,NA,110.476288080215,110.981426239014,110.981426239014,111.668563604355,"right",0.668706655502319,"None",NA,NA,NA,2,"GA2","2025-08-20_14h55.39.569","mlcm_experiment_whites_illusion",NA,"2025.1.1",59.9208542031561,"2025-08-20 14h55.45.926289 +0200",NA
"184",89,0.42,0.25,1,0,"imgs/white_0.42_0.25_1.0_0.0.png",89,89,0,"left",0.947402477264404,"None",0,89,89,89,111.683814525604,NA,NA,NA,NA,NA,111.675941944122,112.182808637619,112.182808637619,113.138446331024,"left",0.947402477264404,"None",NA,NA,NA,2,"GA2","2025-08-20_14h55.39.569","mlcm_experiment_whites_illusion",NA,"2025.1.1",59.9208542031561,"2025-08-20 14h55.45.926289 +0200",NA
"185",90,0.42,0.67,1,0,"imgs/white_0.42_0.67_1.0_0.0.png",90,90,0,"right",0.679948568344116,"None",0,90,90,90,113.15150475502,NA,NA,NA,NA,NA,113.144598960876,113.650371074677,113.650371074677,114.337170362473,"right",0.679948568344116,"None",NA,NA,NA,2,"GA2","2025-08-20_14h55.39.569","mlcm_experiment_whites_illusion",NA,"2025.1.1",59.9208542031561,"2025-08-20 14h55.45.926289 +0200",NA
"186",NA,NA,NA,NA,NA,"",NA,NA,NA,"",NA,"",NA,NA,NA,NA,NA,NA,NA,NA,NA,NA,NA,NA,NA,NA,"",NA,"",114.414765119553,114.419434785843,116.352457523346,2,"GA2","2025-08-20_14h55.39.569","mlcm_experiment_whites_illusion",NA,"2025.1.1",59.9208542031561,"2025-08-20 14h55.45.926289 +0200",NA
"187",NA,NA,NA,NA,NA,"",NA,NA,NA,"",NA,"",NA,NA,NA,NA,NA,NA,0.00904321670532227,0.0127365589141846,0.0127365589141846,0.558276891708374,NA,NA,NA,NA,"",NA,"",NA,NA,NA,3,"GA3","2025-08-20_15h18.57.483","mlcm_experiment_whites_illusion",NA,"2025.1.1",59.9697742217291,"2025-08-20 15h19.03.706462 +0200",NA
"188",0,0.42,0.5,1,1,"imgs/white_0.42_0.5_1.0_1.0.png",0,0,0,"right",1.11346745491028,"None",0,0,0,0,0.579386949539185,NA,NA,NA,NA,NA,0.576341867446899,1.07310605049133,1.07310605049133,2.20667433738708,"right",1.11346745491028,"None",NA,NA,NA,3,"GA3","2025-08-20_15h18.57.483","mlcm_experiment_whites_illusion",NA,"2025.1.1",59.9697742217291,"2025-08-20 15h19.03.706462 +0200",NA
"189",1,0.25,0.58,0,1,"imgs/white_0.25_0.58_0.0_1.0.png",1,1,0,"right",0.803394794464111,"None",0,1,1,1,2.22097730636597,NA,NA,NA,NA,NA,2.21371650695801,2.7198805809021,2.7198805809021,3.54012942314148,"right",0.803394794464111,"None",NA,NA,NA,3,"GA3","2025-08-20_15h18.57.483","mlcm_experiment_whites_illusion",NA,"2025.1.1",59.9697742217291,"2025-08-20 15h19.03.706462 +0200",NA
"190",2,0.33,0.67,0,0,"imgs/white_0.33_0.67_0.0_0.0.png",2,2,0,"right",0.549656867980957,"None",0,2,2,2,3.55370259284973,NA,NA,NA,NA,NA,3.54696774482727,4.05426454544067,4.05426454544067,4.60803914070129,"right",0.549656867980957,"None",NA,NA,NA,3,"GA3","2025-08-20_15h18.57.483","mlcm_experiment_whites_illusion",NA,"2025.1.1",59.9697742217291,"2025-08-20 15h19.03.706462 +0200",NA
"191",3,0.58,0.33,1,1,"imgs/white_0.58_0.33_1.0_1.0.png",3,3,0,"left",0.561097860336304,"None",0,3,3,3,4.62133884429932,NA,NA,NA,NA,NA,4.61510920524597,5.12203001976013,5.12203001976013,5.69156885147095,"left",0.561097860336304,"None",NA,NA,NA,3,"GA3","2025-08-20_15h18.57.483","mlcm_experiment_whites_illusion",NA,"2025.1.1",59.9697742217291,"2025-08-20 15h19.03.706462 +0200",NA
"192",4,0.25,0.75,0,1,"imgs/white_0.25_0.75_0.0_1.0.png",4,4,0,"right",0.613111734390259,"None",0,4,4,4,5.70717787742615,NA,NA,NA,NA,NA,5.70167875289917,6.20600581169128,6.20600581169128,6.8254542350769,"right",0.613111734390259,"None",NA,NA,NA,3,"GA3","2025-08-20_15h18.57.483","mlcm_experiment_whites_illusion",NA,"2025.1.1",59.9697742217291,"2025-08-20 15h19.03.706462 +0200",NA
"193",5,0.67,0.42,1,1,"imgs/white_0.67_0.42_1.0_1.0.png",5,5,0,"left",0.550884962081909,"None",0,5,5,5,6.84162378311157,NA,NA,NA,NA,NA,6.83331751823425,7.34039974212646,7.34039974212646,7.91094374656677,"left",0.550884962081909,"None",NA,NA,NA,3,"GA3","2025-08-20_15h18.57.483","mlcm_experiment_whites_illusion",NA,"2025.1.1",59.9697742217291,"2025-08-20 15h19.03.706462 +0200",NA
"194",6,0.5,0.33,0,0,"imgs/white_0.5_0.33_0.0_0.0.png",6,6,0,"left",0.649991512298584,"None",0,6,6,6,7.92596340179443,NA,NA,NA,NA,NA,7.91839718818665,8.42520689964294,8.42520689964294,9.07851409912109,"left",0.649991512298584,"None",NA,NA,NA,3,"GA3","2025-08-20_15h18.57.483","mlcm_experiment_whites_illusion",NA,"2025.1.1",59.9697742217291,"2025-08-20 15h19.03.706462 +0200",NA
"195",7,0.42,0.33,0,0,"imgs/white_0.42_0.33_0.0_0.0.png",7,7,0,"left",0.818384408950806,"None",0,7,7,7,9.09183502197266,NA,NA,NA,NA,NA,9.08508276939392,9.59259557723999,9.59259557723999,10.4291443824768,"left",0.818384408950806,"None",NA,NA,NA,3,"GA3","2025-08-20_15h18.57.483","mlcm_experiment_whites_illusion",NA,"2025.1.1",59.9697742217291,"2025-08-20 15h19.03.706462 +0200",NA
"196",8,0.25,0.58,0,0,"imgs/white_0.25_0.58_0.0_0.0.png",8,8,0,"right",0.499878644943237,"None",0,8,8,8,10.4447751045227,NA,NA,NA,NA,NA,10.4367718696594,10.9433610439301,10.9433610439301,11.4465413093567,"right",0.499878644943237,"None",NA,NA,NA,3,"GA3","2025-08-20_15h18.57.483","mlcm_experiment_whites_illusion",NA,"2025.1.1",59.9697742217291,"2025-08-20 15h19.03.706462 +0200",NA
"197",9,0.5,0.33,1,0,"imgs/white_0.5_0.33_1.0_0.0.png",9,9,0,"left",0.698232173919678,"None",0,9,9,9,11.4603807926178,NA,NA,NA,NA,NA,11.4551277160645,11.9610507488251,11.9610507488251,12.6649360656738,"left",0.698232173919678,"None",NA,NA,NA,3,"GA3","2025-08-20_15h18.57.483","mlcm_experiment_whites_illusion",NA,"2025.1.1",59.9697742217291,"2025-08-20 15h19.03.706462 +0200",NA
"198",10,0.58,0.58,1,0,"imgs/white_0.58_0.58_1.0_0.0.png",10,10,0,"right",0.568370819091797,"None",0,10,10,10,12.678031206131,NA,NA,NA,NA,NA,12.6731100082397,13.1787679195404,13.1787679195404,13.7652599811554,"right",0.568370819091797,"None",NA,NA,NA,3,"GA3","2025-08-20_15h18.57.483","mlcm_experiment_whites_illusion",NA,"2025.1.1",59.9697742217291,"2025-08-20 15h19.03.706462 +0200",NA
"199",11,0.33,0.75,1,1,"imgs/white_0.33_0.75_1.0_1.0.png",11,11,0,"right",0.595850706100464,"None",0,11,11,11,13.7808759212494,NA,NA,NA,NA,NA,13.7737643718719,14.2795462608337,14.2795462608337,14.8826243877411,"right",0.595850706100464,"None",NA,NA,NA,3,"GA3","2025-08-20_15h18.57.483","mlcm_experiment_whites_illusion",NA,"2025.1.1",59.9697742217291,"2025-08-20 15h19.03.706462 +0200",NA
"200",12,0.58,0.75,1,1,"imgs/white_0.58_0.75_1.0_1.0.png",12,12,0,"right",0.893999338150024,"None",0,12,12,12,14.8985378742218,NA,NA,NA,NA,NA,14.8901572227478,15.3973531723022,15.3973531723022,16.3011362552643,"right",0.893999338150024,"None",NA,NA,NA,3,"GA3","2025-08-20_15h18.57.483","mlcm_experiment_whites_illusion",NA,"2025.1.1",59.9697742217291,"2025-08-20 15h19.03.706462 +0200",NA
"201",13,0.42,0.5,1,0,"imgs/white_0.42_0.5_1.0_0.0.png",13,13,0,"right",0.692303657531738,"None",0,13,13,13,16.3162126541138,NA,NA,NA,NA,NA,16.3089809417725,16.8150146007538,16.8150146007538,17.5185589790344,"right",0.692303657531738,"None",NA,NA,NA,3,"GA3","2025-08-20_15h18.57.483","mlcm_experiment_whites_illusion",NA,"2025.1.1",59.9697742217291,"2025-08-20 15h19.03.706462 +0200",NA
"202",14,0.58,0.25,1,1,"imgs/white_0.58_0.25_1.0_1.0.png",14,14,0,"left",0.642584085464478,"None",0,14,14,14,17.5318040847778,NA,NA,NA,NA,NA,17.5258417129517,18.0327479839325,18.0327479839325,18.6860468387604,"left",0.642584085464478,"None",NA,NA,NA,3,"GA3","2025-08-20_15h18.57.483","mlcm_experiment_whites_illusion",NA,"2025.1.1",59.9697742217291,"2025-08-20 15h19.03.706462 +0200",NA
"203",15,0.33,0.67,1,1,"imgs/white_0.33_0.67_1.0_1.0.png",15,15,0,"right",0.546902656555176,"None",0,15,15,15,18.7021484375,NA,NA,NA,NA,NA,18.6967017650604,19.200514793396,19.200514793396,19.7532036304474,"right",0.546902656555176,"None",NA,NA,NA,3,"GA3","2025-08-20_15h18.57.483","mlcm_experiment_whites_illusion",NA,"2025.1.1",59.9697742217291,"2025-08-20 15h19.03.706462 +0200",NA
"204",16,0.25,0.25,1,0,"imgs/white_0.25_0.25_1.0_0.0.png",16,16,0,"right",0.591317892074585,"None",0,16,16,16,19.767808675766,NA,NA,NA,NA,NA,19.7598035335541,20.2680597305298,20.2680597305298,20.8721745014191,"right",0.591317892074585,"None",NA,NA,NA,3,"GA3","2025-08-20_15h18.57.483","mlcm_experiment_whites_illusion",NA,"2025.1.1",59.9697742217291,"2025-08-20 15h19.03.706462 +0200",NA
"205",17,0.33,0.42,1,1,"imgs/white_0.33_0.42_1.0_1.0.png",17,17,0,"right",0.9858238697052,"None",0,17,17,17,20.8850820064545,NA,NA,NA,NA,NA,20.8800253868103,21.3856160640717,21.3856160640717,22.3892903327942,"right",0.9858238697052,"None",NA,NA,NA,3,"GA3","2025-08-20_15h18.57.483","mlcm_experiment_whites_illusion",NA,"2025.1.1",59.9697742217291,"2025-08-20 15h19.03.706462 +0200",NA
"206",18,0.75,0.67,1,1,"imgs/white_0.75_0.67_1.0_1.0.png",18,18,0,"left",0.891746044158936,"None",0,18,18,18,22.4046943187714,NA,NA,NA,NA,NA,22.3966097831726,22.9037225246429,22.9037225246429,23.8083617687225,"left",0.891746044158936,"None",NA,NA,NA,3,"GA3","2025-08-20_15h18.57.483","mlcm_experiment_whites_illusion",NA,"2025.1.1",59.9697742217291,"2025-08-20 15h19.03.706462 +0200",NA
"207",19,0.25,0.67,0,0,"imgs/white_0.25_0.67_0.0_0.0.png",19,19,0,"right",0.553908586502075,"None",0,19,19,19,23.8235166072845,NA,NA,NA,NA,NA,23.8183858394623,24.3215658664703,24.3215658664703,24.8909862041473,"right",0.553908586502075,"None",NA,NA,NA,3,"GA3","2025-08-20_15h18.57.483","mlcm_experiment_whites_illusion",NA,"2025.1.1",59.9697742217291,"2025-08-20 15h19.03.706462 +0200",NA
"208",20,0.42,0.42,1,0,"imgs/white_0.42_0.42_1.0_0.0.png",20,20,0,"right",1.18174386024475,"None",0,20,20,20,24.9048800468445,NA,NA,NA,NA,NA,24.8980572223663,25.4058101177216,25.4058101177216,26.5931849479675,"right",1.18174386024475,"None",NA,NA,NA,3,"GA3","2025-08-20_15h18.57.483","mlcm_experiment_whites_illusion",NA,"2025.1.1",59.9697742217291,"2025-08-20 15h19.03.706462 +0200",NA
"209",21,0.5,0.75,1,0,"imgs/white_0.5_0.75_1.0_0.0.png",21,21,0,"right",0.502275705337524,"None",0,21,21,21,26.6065807342529,NA,NA,NA,NA,NA,26.6020495891571,27.1085176467896,27.1085176467896,27.6290743350983,"right",0.502275705337524,"None",NA,NA,NA,3,"GA3","2025-08-20_15h18.57.483","mlcm_experiment_whites_illusion",NA,"2025.1.1",59.9697742217291,"2025-08-20 15h19.03.706462 +0200",NA
"210",22,0.33,0.58,0,0,"imgs/white_0.33_0.58_0.0_0.0.png",22,22,0,"right",0.550097703933716,"None",0,22,22,22,27.6423873901367,NA,NA,NA,NA,NA,27.6322631835938,28.1414813995361,28.1414813995361,28.6954567432404,"right",0.550097703933716,"None",NA,NA,NA,3,"GA3","2025-08-20_15h18.57.483","mlcm_experiment_whites_illusion",NA,"2025.1.1",59.9697742217291,"2025-08-20 15h19.03.706462 +0200",NA
"211",23,0.25,0.67,1,1,"imgs/white_0.25_0.67_1.0_1.0.png",23,23,0,"right",0.608859300613403,"None",0,23,23,23,28.710964679718,NA,NA,NA,NA,NA,28.7056245803833,29.2106273174286,29.2106273174286,29.8298497200012,"right",0.608859300613403,"None",NA,NA,NA,3,"GA3","2025-08-20_15h18.57.483","mlcm_experiment_whites_illusion",NA,"2025.1.1",59.9697742217291,"2025-08-20 15h19.03.706462 +0200",NA
"212",24,0.67,0.67,1,0,"imgs/white_0.67_0.67_1.0_0.0.png",24,24,0,"right",1.06822037696838,"None",0,24,24,24,29.8430564403534,NA,NA,NA,NA,NA,29.8375287055969,30.3431105613708,30.3431105613708,31.4301071166992,"right",1.06822037696838,"None",NA,NA,NA,3,"GA3","2025-08-20_15h18.57.483","mlcm_experiment_whites_illusion",NA,"2025.1.1",59.9697742217291,"2025-08-20 15h19.03.706462 +0200",NA
"213",25,0.33,0.25,1,0,"imgs/white_0.33_0.25_1.0_0.0.png",25,25,0,"left",1.61088037490845,"None",0,25,25,25,31.4441084861755,NA,NA,NA,NA,NA,31.4369785785675,31.9447357654572,31.9447357654572,33.5668745040894,"left",1.61088037490845,"None",NA,NA,NA,3,"GA3","2025-08-20_15h18.57.483","mlcm_experiment_whites_illusion",NA,"2025.1.1",59.9697742217291,"2025-08-20 15h19.03.706462 +0200",NA
"214",26,0.75,0.25,0,0,"imgs/white_0.75_0.25_0.0_0.0.png",26,26,0,"left",0.571279764175415,"None",0,26,26,26,33.5836324691772,NA,NA,NA,NA,NA,33.5771901607513,34.0803422927856,34.0803422927856,34.6667561531067,"left",0.571279764175415,"None",NA,NA,NA,3,"GA3","2025-08-20_15h18.57.483","mlcm_experiment_whites_illusion",NA,"2025.1.1",59.9697742217291,"2025-08-20 15h19.03.706462 +0200",NA
"215",27,0.5,0.58,1,1,"imgs/white_0.5_0.58_1.0_1.0.png",27,27,0,"right",0.838905811309814,"None",0,27,27,27,34.680894613266,NA,NA,NA,NA,NA,34.6748034954071,35.1805756092072,35.1805756092072,36.0342650413513,"right",0.838905811309814,"None",NA,NA,NA,3,"GA3","2025-08-20_15h18.57.483","mlcm_experiment_whites_illusion",NA,"2025.1.1",59.9697742217291,"2025-08-20 15h19.03.706462 +0200",NA
"216",28,0.33,0.33,0,1,"imgs/white_0.33_0.33_0.0_1.0.png",28,28,0,"left",0.559157371520996,"None",0,28,28,28,36.0498688220978,NA,NA,NA,NA,NA,36.0436689853668,36.5485715866089,36.5485715866089,37.118435382843,"left",0.559157371520996,"None",NA,NA,NA,3,"GA3","2025-08-20_15h18.57.483","mlcm_experiment_whites_illusion",NA,"2025.1.1",59.9697742217291,"2025-08-20 15h19.03.706462 +0200",NA
"217",29,0.58,0.42,1,0,"imgs/white_0.58_0.42_1.0_0.0.png",29,29,0,"left",1.18665099143982,"None",0,29,29,29,37.1344010829926,NA,NA,NA,NA,NA,37.1263523101807,37.6328403949738,37.6328403949738,38.8364968299866,"left",1.18665099143982,"None",NA,NA,NA,3,"GA3","2025-08-20_15h18.57.483","mlcm_experiment_whites_illusion",NA,"2025.1.1",59.9697742217291,"2025-08-20 15h19.03.706462 +0200",NA
"218",30,0.5,0.5,1,0,"imgs/white_0.5_0.5_1.0_0.0.png",30,30,0,"right",0.566024303436279,"None",0,30,30,30,38.8550958633423,NA,NA,NA,NA,NA,38.8499910831451,39.3509700298309,39.3509700298309,39.9206955432892,"right",0.566024303436279,"None",NA,NA,NA,3,"GA3","2025-08-20_15h18.57.483","mlcm_experiment_whites_illusion",NA,"2025.1.1",59.9697742217291,"2025-08-20 15h19.03.706462 +0200",NA
"219",31,0.67,0.25,0,1,"imgs/white_0.67_0.25_0.0_1.0.png",31,31,0,"left",0.552617073059082,"None",0,31,31,31,39.9344336986542,NA,NA,NA,NA,NA,39.927711725235,40.4350781440735,40.4350781440735,41.0052165985107,"left",0.552617073059082,"None",NA,NA,NA,3,"GA3","2025-08-20_15h18.57.483","mlcm_experiment_whites_illusion",NA,"2025.1.1",59.9697742217291,"2025-08-20 15h19.03.706462 +0200",NA
"220",32,0.33,0.25,1,1,"imgs/white_0.33_0.25_1.0_1.0.png",32,32,0,"left",0.627424001693726,"None",0,32,32,32,41.0209529399872,NA,NA,NA,NA,NA,41.012060880661,41.5206139087677,41.5206139087677,42.1554367542267,"left",0.627424001693726,"None",NA,NA,NA,3,"GA3","2025-08-20_15h18.57.483","mlcm_experiment_whites_illusion",NA,"2025.1.1",59.9697742217291,"2025-08-20 15h19.03.706462 +0200",NA
"221",33,0.58,0.42,0,0,"imgs/white_0.58_0.42_0.0_0.0.png",33,33,0,"left",0.566266536712646,"None",0,33,33,33,42.169394493103,NA,NA,NA,NA,NA,42.1627624034882,42.6702883243561,42.6702883243561,43.2401146888733,"left",0.566266536712646,"None",NA,NA,NA,3,"GA3","2025-08-20_15h18.57.483","mlcm_experiment_whites_illusion",NA,"2025.1.1",59.9697742217291,"2025-08-20 15h19.03.706462 +0200",NA
"222",34,0.25,0.58,1,0,"imgs/white_0.25_0.58_1.0_0.0.png",34,34,0,"right",0.497419357299805,"None",0,34,34,34,43.2560722827911,NA,NA,NA,NA,NA,43.2485363483429,43.7544119358063,43.7544119358063,44.2574512958527,"right",0.497419357299805,"None",NA,NA,NA,3,"GA3","2025-08-20_15h18.57.483","mlcm_experiment_whites_illusion",NA,"2025.1.1",59.9697742217291,"2025-08-20 15h19.03.706462 +0200",NA
"223",35,0.25,0.33,1,0,"imgs/white_0.25_0.33_1.0_0.0.png",35,35,0,"right",0.512203931808472,"None",0,35,35,35,44.2711765766144,NA,NA,NA,NA,NA,44.2646143436432,44.7717549800873,44.7717549800873,45.2938096523285,"right",0.512203931808472,"None",NA,NA,NA,3,"GA3","2025-08-20_15h18.57.483","mlcm_experiment_whites_illusion",NA,"2025.1.1",59.9697742217291,"2025-08-20 15h19.03.706462 +0200",NA
"224",36,0.58,0.67,0,1,"imgs/white_0.58_0.67_0.0_1.0.png",36,36,0,"left",0.677651882171631,"None",0,36,36,36,45.3074464797974,NA,NA,NA,NA,NA,45.3006083965302,45.8063502311707,45.8063502311707,46.4923646450043,"left",0.677651882171631,"None",NA,NA,NA,3,"GA3","2025-08-20_15h18.57.483","mlcm_experiment_whites_illusion",NA,"2025.1.1",59.9697742217291,"2025-08-20 15h19.03.706462 +0200",NA
"225",37,0.75,0.58,0,0,"imgs/white_0.75_0.58_0.0_0.0.png",37,37,0,"left",0.708672046661377,"None",0,37,37,37,46.5083420276642,NA,NA,NA,NA,NA,46.4996061325073,47.0073754787445,47.0073754787445,47.7279663085938,"left",0.708672046661377,"None",NA,NA,NA,3,"GA3","2025-08-20_15h18.57.483","mlcm_experiment_whites_illusion",NA,"2025.1.1",59.9697742217291,"2025-08-20 15h19.03.706462 +0200",NA
"226",38,0.75,0.42,1,0,"imgs/white_0.75_0.42_1.0_0.0.png",38,38,0,"left",1.10608959197998,"None",0,38,38,38,47.7426664829254,NA,NA,NA,NA,NA,47.7372465133667,48.2416882514954,48.2416882514954,49.3607776165009,"left",1.10608959197998,"None",NA,NA,NA,3,"GA3","2025-08-20_15h18.57.483","mlcm_experiment_whites_illusion",NA,"2025.1.1",59.9697742217291,"2025-08-20 15h19.03.706462 +0200",NA
"227",39,0.67,0.75,1,0,"imgs/white_0.67_0.75_1.0_0.0.png",39,39,0,"right",0.672023296356201,"None",0,39,39,39,49.3756859302521,NA,NA,NA,NA,NA,49.3669395446777,49.876549243927,49.876549243927,50.5630974769592,"right",0.672023296356201,"None",NA,NA,NA,3,"GA3","2025-08-20_15h18.57.483","mlcm_experiment_whites_illusion",NA,"2025.1.1",59.9697742217291,"2025-08-20 15h19.03.706462 +0200",NA
"228",40,0.5,0.58,0,1,"imgs/white_0.5_0.58_0.0_1.0.png",40,40,0,"left",0.613975286483765,"None",0,40,40,40,50.578887462616,NA,NA,NA,NA,NA,50.5706357955933,51.0772757530212,51.0772757530212,51.6966123580933,"left",0.613975286483765,"None",NA,NA,NA,3,"GA3","2025-08-20_15h18.57.483","mlcm_experiment_whites_illusion",NA,"2025.1.1",59.9697742217291,"2025-08-20 15h19.03.706462 +0200",NA
"229",41,0.75,0.58,1,0,"imgs/white_0.75_0.58_1.0_0.0.png",41,41,0,"left",0.934994459152222,"None",0,41,41,41,51.7125539779663,NA,NA,NA,NA,NA,51.7016310691833,52.2129747867584,52.2129747867584,53.1651532649994,"left",0.934994459152222,"None",NA,NA,NA,3,"GA3","2025-08-20_15h18.57.483","mlcm_experiment_whites_illusion",NA,"2025.1.1",59.9697742217291,"2025-08-20 15h19.03.706462 +0200",NA
"230",42,0.67,0.5,1,0,"imgs/white_0.67_0.5_1.0_0.0.png",42,42,0,"left",0.708617687225342,"None",0,42,42,42,53.1806025505066,NA,NA,NA,NA,NA,53.173267364502,53.6794936656952,53.6794936656952,54.3990948200226,"left",0.708617687225342,"None",NA,NA,NA,3,"GA3","2025-08-20_15h18.57.483","mlcm_experiment_whites_illusion",NA,"2025.1.1",59.9697742217291,"2025-08-20 15h19.03.706462 +0200",NA
"231",43,0.67,0.25,1,0,"imgs/white_0.67_0.25_1.0_0.0.png",43,43,0,"left",0.624989032745361,"None",0,43,43,43,54.412921667099,NA,NA,NA,NA,NA,54.4067139625549,54.9140417575836,54.9140417575836,55.5495226383209,"left",0.624989032745361,"None",NA,NA,NA,3,"GA3","2025-08-20_15h18.57.483","mlcm_experiment_whites_illusion",NA,"2025.1.1",59.9697742217291,"2025-08-20 15h19.03.706462 +0200",NA
"232",44,0.75,0.75,1,0,"imgs/white_0.75_0.75_1.0_0.0.png",44,44,0,"right",0.51573920249939,"None",0,44,44,44,55.5657880306244,NA,NA,NA,NA,NA,55.5517416000366,56.0650281906128,56.0650281906128,56.5842885971069,"right",0.51573920249939,"None",NA,NA,NA,3,"GA3","2025-08-20_15h18.57.483","mlcm_experiment_whites_illusion",NA,"2025.1.1",59.9697742217291,"2025-08-20 15h19.03.706462 +0200",NA
"233",45,0.75,0.33,1,0,"imgs/white_0.75_0.33_1.0_0.0.png",45,45,0,"left",0.5673828125,"None",0,45,45,45,56.5983970165253,NA,NA,NA,NA,NA,56.5919308662415,57.100457906723,57.100457906723,57.6851408481598,"left",0.5673828125,"None",NA,NA,NA,3,"GA3","2025-08-20_15h18.57.483","mlcm_experiment_whites_illusion",NA,"2025.1.1",59.9697742217291,"2025-08-20 15h19.03.706462 +0200",NA
"234",46,0.67,0.5,0,0,"imgs/white_0.67_0.5_0.0_0.0.png",46,46,0,"left",0.587952375411987,"None",0,46,46,46,57.7011315822601,NA,NA,NA,NA,NA,57.6949472427368,58.20006275177,58.20006275177,58.8029632568359,"left",0.587952375411987,"None",NA,NA,NA,3,"GA3","2025-08-20_15h18.57.483","mlcm_experiment_whites_illusion",NA,"2025.1.1",59.9697742217291,"2025-08-20 15h19.03.706462 +0200",NA
"235",47,0.5,0.25,1,1,"imgs/white_0.5_0.25_1.0_1.0.png",47,47,0,"left",0.49446964263916,"None",0,47,47,47,58.8168394565582,NA,NA,NA,NA,NA,58.8111116886139,59.3177156448364,59.3177156448364,59.8205614089966,"left",0.49446964263916,"None",NA,NA,NA,3,"GA3","2025-08-20_15h18.57.483","mlcm_experiment_whites_illusion",NA,"2025.1.1",59.9697742217291,"2025-08-20 15h19.03.706462 +0200",NA
"236",48,0.42,0.33,1,0,"imgs/white_0.42_0.33_1.0_0.0.png",48,48,0,"left",0.508821964263916,"None",0,48,48,48,59.834324836731,NA,NA,NA,NA,NA,59.8276195526123,60.3353109359741,60.3353109359741,60.8548729419708,"left",0.508821964263916,"None",NA,NA,NA,3,"GA3","2025-08-20_15h18.57.483","mlcm_experiment_whites_illusion",NA,"2025.1.1",59.9697742217291,"2025-08-20 15h19.03.706462 +0200",NA
"237",49,0.5,0.67,1,0,"imgs/white_0.5_0.67_1.0_0.0.png",49,49,0,"right",0.458621501922607,"None",0,49,49,49,60.8706390857697,NA,NA,NA,NA,NA,60.8620073795319,61.3693635463715,61.3693635463715,61.8394496440887,"right",0.458621501922607,"None",NA,NA,NA,3,"GA3","2025-08-20_15h18.57.483","mlcm_experiment_whites_illusion",NA,"2025.1.1",59.9697742217291,"2025-08-20 15h19.03.706462 +0200",NA
"238",50,0.42,0.67,0,0,"imgs/white_0.42_0.67_0.0_0.0.png",50,50,0,"right",0.490425825119019,"None",0,50,50,50,61.8526582717896,NA,NA,NA,NA,NA,61.8490686416626,62.3535308837891,62.3535308837891,62.8566806316376,"right",0.490425825119019,"None",NA,NA,NA,3,"GA3","2025-08-20_15h18.57.483","mlcm_experiment_whites_illusion",NA,"2025.1.1",59.9697742217291,"2025-08-20 15h19.03.706462 +0200",NA
"239",51,0.33,0.5,1,0,"imgs/white_0.33_0.5_1.0_0.0.png",51,51,0,"right",0.473543405532837,"None",0,51,51,51,62.8702483177185,NA,NA,NA,NA,NA,62.8641965389252,63.3709375858307,63.3709375858307,63.8572573661804,"right",0.473543405532837,"None",NA,NA,NA,3,"GA3","2025-08-20_15h18.57.483","mlcm_experiment_whites_illusion",NA,"2025.1.1",59.9697742217291,"2025-08-20 15h19.03.706462 +0200",NA
"240",52,0.25,0.42,1,1,"imgs/white_0.25_0.42_1.0_1.0.png",52,52,0,"right",0.544816970825195,"None",0,52,52,52,63.8716843128204,NA,NA,NA,NA,NA,63.8649098873138,64.3717422485352,64.3717422485352,64.9247870445251,"right",0.544816970825195,"None",NA,NA,NA,3,"GA3","2025-08-20_15h18.57.483","mlcm_experiment_whites_illusion",NA,"2025.1.1",59.9697742217291,"2025-08-20 15h19.03.706462 +0200",NA
"241",53,0.75,0.33,0,0,"imgs/white_0.75_0.33_0.0_0.0.png",53,53,0,"left",0.540678262710571,"None",0,53,53,53,64.9407818317413,NA,NA,NA,NA,NA,64.9319972991943,65.4394936561584,65.4394936561584,65.9926710128784,"left",0.540678262710571,"None",NA,NA,NA,3,"GA3","2025-08-20_15h18.57.483","mlcm_experiment_whites_illusion",NA,"2025.1.1",59.9697742217291,"2025-08-20 15h19.03.706462 +0200",NA
"242",54,0.5,0.67,1,1,"imgs/white_0.5_0.67_1.0_1.0.png",54,54,0,"right",0.777084827423096,"None",0,54,54,54,66.0062901973724,NA,NA,NA,NA,NA,65.9998757839203,66.5071439743042,66.5071439743042,67.294037103653,"right",0.777084827423096,"None",NA,NA,NA,3,"GA3","2025-08-20_15h18.57.483","mlcm_experiment_whites_illusion",NA,"2025.1.1",59.9697742217291,"2025-08-20 15h19.03.706462 +0200",NA
"243",55,0.67,0.58,1,1,"imgs/white_0.67_0.58_1.0_1.0.png",55,55,0,"left",0.756092309951782,"None",0,55,55,55,67.3077278137207,NA,NA,NA,NA,NA,67.3018870353699,67.8082890510559,67.8082890510559,68.5782840251923,"left",0.756092309951782,"None",NA,NA,NA,3,"GA3","2025-08-20_15h18.57.483","mlcm_experiment_whites_illusion",NA,"2025.1.1",59.9697742217291,"2025-08-20 15h19.03.706462 +0200",NA
"244",56,0.5,0.75,0,0,"imgs/white_0.5_0.75_0.0_0.0.png",56,56,0,"right",0.647692203521729,"None",0,56,56,56,68.5921847820282,NA,NA,NA,NA,NA,68.5851905345917,69.0926563739777,69.0926563739777,69.7454459667206,"right",0.647692203521729,"None",NA,NA,NA,3,"GA3","2025-08-20_15h18.57.483","mlcm_experiment_whites_illusion",NA,"2025.1.1",59.9697742217291,"2025-08-20 15h19.03.706462 +0200",NA
"245",57,0.25,0.33,0,0,"imgs/white_0.25_0.33_0.0_0.0.png",57,57,0,"right",1.41699838638306,"None",0,57,57,57,69.762656211853,NA,NA,NA,NA,NA,69.7569897174835,70.260062456131,70.260062456131,71.6808607578278,"right",1.41699838638306,"None",NA,NA,NA,3,"GA3","2025-08-20_15h18.57.483","mlcm_experiment_whites_illusion",NA,"2025.1.1",59.9697742217291,"2025-08-20 15h19.03.706462 +0200",NA
"246",58,0.67,0.33,0,1,"imgs/white_0.67_0.33_0.0_1.0.png",58,58,0,"left",0.544098138809204,"None",0,58,58,58,71.6966257095337,NA,NA,NA,NA,NA,71.6912484169006,72.196359872818,72.196359872818,72.747917175293,"left",0.544098138809204,"None",NA,NA,NA,3,"GA3","2025-08-20_15h18.57.483","mlcm_experiment_whites_illusion",NA,"2025.1.1",59.9697742217291,"2025-08-20 15h19.03.706462 +0200",NA
"247",59,0.67,0.75,0,1,"imgs/white_0.67_0.75_0.0_1.0.png",59,59,0,"left",0.661705493927002,"None",0,59,59,59,72.7618820667267,NA,NA,NA,NA,NA,72.75457072258,73.2629396915436,73.2629396915436,73.9321429729462,"left",0.661705493927002,"None",NA,NA,NA,3,"GA3","2025-08-20_15h18.57.483","mlcm_experiment_whites_illusion",NA,"2025.1.1",59.9697742217291,"2025-08-20 15h19.03.706462 +0200",NA
"248",60,0.42,0.75,1,0,"imgs/white_0.42_0.75_1.0_0.0.png",60,60,0,"right",0.485109806060791,"None",0,60,60,60,73.9484171867371,NA,NA,NA,NA,NA,73.9404351711273,74.4471731185913,74.4471731185913,74.9501829147339,"right",0.485109806060791,"None",NA,NA,NA,3,"GA3","2025-08-20_15h18.57.483","mlcm_experiment_whites_illusion",NA,"2025.1.1",59.9697742217291,"2025-08-20 15h19.03.706462 +0200",NA
"249",61,0.33,0.58,0,1,"imgs/white_0.33_0.58_0.0_1.0.png",61,61,0,"left",0.620242118835449,"None",0,61,61,61,74.9637258052826,NA,NA,NA,NA,NA,74.9571943283081,75.4645891189575,75.4645891189575,76.1013884544373,"left",0.620242118835449,"None",NA,NA,NA,3,"GA3","2025-08-20_15h18.57.483","mlcm_experiment_whites_illusion",NA,"2025.1.1",59.9697742217291,"2025-08-20 15h19.03.706462 +0200",NA
"250",62,0.42,0.75,1,1,"imgs/white_0.42_0.75_1.0_1.0.png",62,62,0,"right",0.628940343856812,"None",0,62,62,62,76.1166048049927,NA,NA,NA,NA,NA,76.1077373027802,76.615617275238,76.615617275238,77.2522225379944,"right",0.628940343856812,"None",NA,NA,NA,3,"GA3","2025-08-20_15h18.57.483","mlcm_experiment_whites_illusion",NA,"2025.1.1",59.9697742217291,"2025-08-20 15h19.03.706462 +0200",NA
"251",63,0.5,0.42,0,0,"imgs/white_0.5_0.42_0.0_0.0.png",63,63,0,"left",0.70783519744873,"None",0,63,63,63,77.2676124572754,NA,NA,NA,NA,NA,77.2589385509491,77.7687380313873,77.7687380313873,78.4864263534546,"left",0.70783519744873,"None",NA,NA,NA,3,"GA3","2025-08-20_15h18.57.483","mlcm_experiment_whites_illusion",NA,"2025.1.1",59.9697742217291,"2025-08-20 15h19.03.706462 +0200",NA
"252",64,0.5,0.25,0,0,"imgs/white_0.5_0.25_0.0_0.0.png",64,64,0,"left",0.547384738922119,"None",0,64,64,64,78.5001692771912,NA,NA,NA,NA,NA,78.4931061267853,79.0011529922485,79.0011529922485,79.5541415214539,"left",0.547384738922119,"None",NA,NA,NA,3,"GA3","2025-08-20_15h18.57.483","mlcm_experiment_whites_illusion",NA,"2025.1.1",59.9697742217291,"2025-08-20 15h19.03.706462 +0200",NA
"253",65,0.33,0.67,0,1,"imgs/white_0.33_0.67_0.0_1.0.png",65,65,0,"right",0.672301054000854,"None",0,65,65,65,79.5698182582855,NA,NA,NA,NA,NA,79.5606489181519,80.0685045719147,80.0685045719147,80.7554242610931,"right",0.672301054000854,"None",NA,NA,NA,3,"GA3","2025-08-20_15h18.57.483","mlcm_experiment_whites_illusion",NA,"2025.1.1",59.9697742217291,"2025-08-20 15h19.03.706462 +0200",NA
"254",66,0.58,0.5,0,0,"imgs/white_0.58_0.5_0.0_0.0.png",66,66,0,"left",0.719090461730957,"None",0,66,66,66,80.7705295085907,NA,NA,NA,NA,NA,80.7651233673096,81.2695851325989,81.2695851325989,82.006053686142,"left",0.719090461730957,"None",NA,NA,NA,3,"GA3","2025-08-20_15h18.57.483","mlcm_experiment_whites_illusion",NA,"2025.1.1",59.9697742217291,"2025-08-20 15h19.03.706462 +0200",NA
"255",67,0.25,0.75,1,1,"imgs/white_0.25_0.75_1.0_1.0.png",67,67,0,"right",1.00428938865662,"None",0,67,67,67,82.0218305587769,NA,NA,NA,NA,NA,82.0139815807343,82.5206017494202,82.5206017494202,83.5409500598907,"right",1.00428938865662,"None",NA,NA,NA,3,"GA3","2025-08-20_15h18.57.483","mlcm_experiment_whites_illusion",NA,"2025.1.1",59.9697742217291,"2025-08-20 15h19.03.706462 +0200",NA
"256",68,0.5,0.25,1,0,"imgs/white_0.5_0.25_1.0_0.0.png",68,68,0,"left",0.653679132461548,"None",0,68,68,68,83.5565023422241,NA,NA,NA,NA,NA,83.5477712154388,84.0552051067352,84.0552051067352,84.725145816803,"left",0.653679132461548,"None",NA,NA,NA,3,"GA3","2025-08-20_15h18.57.483","mlcm_experiment_whites_illusion",NA,"2025.1.1",59.9697742217291,"2025-08-20 15h19.03.706462 +0200",NA
"257",69,0.67,0.58,0,0,"imgs/white_0.67_0.58_0.0_0.0.png",69,69,0,"left",0.79793906211853,"None",0,69,69,69,84.7415590286255,NA,NA,NA,NA,NA,84.7362389564514,85.2394990921021,85.2394990921021,86.0422139167786,"left",0.79793906211853,"None",NA,NA,NA,3,"GA3","2025-08-20_15h18.57.483","mlcm_experiment_whites_illusion",NA,"2025.1.1",59.9697742217291,"2025-08-20 15h19.03.706462 +0200",NA
"258",70,0.33,0.42,1,0,"imgs/white_0.33_0.42_1.0_0.0.png",70,70,0,"right",0.6153564453125,"None",0,70,70,70,86.0573015213013,NA,NA,NA,NA,NA,86.0511200428009,86.5573348999023,86.5573348999023,87.1782219409943,"right",0.6153564453125,"None",NA,NA,NA,3,"GA3","2025-08-20_15h18.57.483","mlcm_experiment_whites_illusion",NA,"2025.1.1",59.9697742217291,"2025-08-20 15h19.03.706462 +0200",NA
"259",71,0.58,0.42,0,1,"imgs/white_0.58_0.42_0.0_1.0.png",71,71,0,"left",0.561195135116577,"None",0,71,71,71,87.1926500797272,NA,NA,NA,NA,NA,87.1837959289551,87.691641330719,87.691641330719,88.2609765529633,"left",0.561195135116577,"None",NA,NA,NA,3,"GA3","2025-08-20_15h18.57.483","mlcm_experiment_whites_illusion",NA,"2025.1.1",59.9697742217291,"2025-08-20 15h19.03.706462 +0200",NA
