trial,lum1,lum2,c1,c2,im,thisN,thisTrialN,thisRepN,resp.keys,resp.rt,resp.duration,trials.thisRepN,trials.thisTrialN,trials.thisN,trials.thisIndex,thisRow.t,notes,instruct.started,ready.started,instrText.started,instruct.stopped,trial.started,resp.started,image.started,trial.stopped,trials.resp.keys,trials.resp.rt,trials.resp.duration,thanks.started,thanksText.started,thanks.stopped,session,participant,date,expName,expVersion,psychopyVersion,frameRate,expStart,
,,,,,,,,,,,,,,,,,,0.007848501205444336,0.011729717254638672,0.011729717254638672,0.44217705726623535,,,,,,,,,,,4,GA4,2025-08-20_15h21.08.354,mlcm_experiment_whites_illusion,,2025.1.1,59.775508924346845,2025-08-20 15h21.14.515997 +0200,
0,0.42,0.5,1.0,1.0,imgs/white_0.42_0.5_1.0_1.0.png,0,0,0,right,0.6868906021118164,None,0,0,0,0,0.4741191864013672,,,,,,0.4654848575592041,0.9558520317077637,0.9558520317077637,1.6564064025878906,right,0.6868906021118164,None,,,,4,GA4,2025-08-20_15h21.08.354,mlcm_experiment_whites_illusion,,2025.1.1,59.775508924346845,2025-08-20 15h21.14.515997 +0200,
1,0.25,0.58,0.0,1.0,imgs/white_0.25_0.58_0.0_1.0.png,1,1,0,right,0.601909875869751,None,0,1,1,1,1.6702055931091309,,,,,,1.663938283920288,2.168808698654175,2.168808698654175,2.789034128189087,right,0.601909875869751,None,,,,4,GA4,2025-08-20_15h21.08.354,mlcm_experiment_whites_illusion,,2025.1.1,59.775508924346845,2025-08-20 15h21.14.515997 +0200,
2,0.33,0.67,0.0,0.0,imgs/white_0.33_0.67_0.0_0.0.png,2,2,0,right,0.4993278980255127,None,0,2,2,2,2.8024003505706787,,,,,,2.7962214946746826,3.303406000137329,3.303406000137329,3.8059325218200684,right,0.4993278980255127,None,,,,4,GA4,2025-08-20_15h21.08.354,mlcm_experiment_whites_illusion,,2025.1.1,59.775508924346845,2025-08-20 15h21.14.515997 +0200,
3,0.58,0.33,1.0,1.0,imgs/white_0.58_0.33_1.0_1.0.png,3,3,0,left,0.5863769054412842,None,0,3,3,3,3.820164442062378,,,,,,3.8128533363342285,4.320665597915649,4.320665597915649,4.92433500289917,left,0.5863769054412842,None,,,,4,GA4,2025-08-20_15h21.08.354,mlcm_experiment_whites_illusion,,2025.1.1,59.775508924346845,2025-08-20 15h21.14.515997 +0200,
4,0.25,0.75,0.0,1.0,imgs/white_0.25_0.75_0.0_1.0.png,4,4,0,right,0.5160970687866211,None,0,4,4,4,4.942690849304199,,,,,,4.935886383056641,5.4385457038879395,5.4385457038879395,5.958049297332764,right,0.5160970687866211,None,,,,4,GA4,2025-08-20_15h21.08.354,mlcm_experiment_whites_illusion,,2025.1.1,59.775508924346845,2025-08-20 15h21.14.515997 +0200,
5,0.67,0.42,1.0,1.0,imgs/white_0.67_0.42_1.0_1.0.png,5,5,0,left,0.570310115814209,None,0,5,5,5,5.9727020263671875,,,,,,5.965495824813843,6.472471237182617,6.472471237182617,7.059612989425659,left,0.570310115814209,None,,,,4,GA4,2025-08-20_15h21.08.354,mlcm_experiment_whites_illusion,,2025.1.1,59.775508924346845,2025-08-20 15h21.14.515997 +0200,
6,0.5,0.33,0.0,0.0,imgs/white_0.5_0.33_0.0_0.0.png,6,6,0,left,0.6130824089050293,None,0,6,6,6,7.074753761291504,,,,,,7.066287279129028,7.573767423629761,7.573767423629761,8.19312572479248,left,0.6130824089050293,None,,,,4,GA4,2025-08-20_15h21.08.354,mlcm_experiment_whites_illusion,,2025.1.1,59.775508924346845,2025-08-20 15h21.14.515997 +0200,
7,0.42,0.33,0.0,0.0,imgs/white_0.42_0.33_0.0_0.0.png,7,7,0,left,0.8211042881011963,None,0,7,7,7,8.210361957550049,,,,,,8.199721574783325,8.709646463394165,8.709646463394165,9.544428586959839,left,0.8211042881011963,None,,,,4,GA4,2025-08-20_15h21.08.354,mlcm_experiment_whites_illusion,,2025.1.1,59.775508924346845,2025-08-20 15h21.14.515997 +0200,
8,0.25,0.58,0.0,0.0,imgs/white_0.25_0.58_0.0_0.0.png,8,8,0,right,0.5040256977081299,None,0,8,8,8,9.560316324234009,,,,,,9.551507711410522,10.05877947807312,10.05877947807312,10.578384160995483,right,0.5040256977081299,None,,,,4,GA4,2025-08-20_15h21.08.354,mlcm_experiment_whites_illusion,,2025.1.1,59.775508924346845,2025-08-20 15h21.14.515997 +0200,
9,0.5,0.33,1.0,0.0,imgs/white_0.5_0.33_1.0_0.0.png,9,9,0,left,0.693389892578125,None,0,9,9,9,10.594661474227905,,,,,,10.585939168930054,11.093462467193604,11.093462467193604,11.796600818634033,left,0.693389892578125,None,,,,4,GA4,2025-08-20_15h21.08.354,mlcm_experiment_whites_illusion,,2025.1.1,59.775508924346845,2025-08-20 15h21.14.515997 +0200,
10,0.58,0.58,1.0,0.0,imgs/white_0.58_0.58_1.0_0.0.png,10,10,0,right,0.6657776832580566,None,0,10,10,10,11.812331199645996,,,,,,11.804614305496216,12.312191724777222,12.312191724777222,12.980635166168213,right,0.6657776832580566,None,,,,4,GA4,2025-08-20_15h21.08.354,mlcm_experiment_whites_illusion,,2025.1.1,59.775508924346845,2025-08-20 15h21.14.515997 +0200,
11,0.33,0.75,1.0,1.0,imgs/white_0.33_0.75_1.0_1.0.png,11,11,0,right,0.5073087215423584,None,0,11,11,11,12.995539665222168,,,,,,12.985214948654175,13.49544072151184,13.49544072151184,14.01516056060791,right,0.5073087215423584,None,,,,4,GA4,2025-08-20_15h21.08.354,mlcm_experiment_whites_illusion,,2025.1.1,59.775508924346845,2025-08-20 15h21.14.515997 +0200,
12,0.58,0.75,1.0,1.0,imgs/white_0.58_0.75_1.0_1.0.png,12,12,0,right,0.5921070575714111,None,0,12,12,12,14.028500080108643,,,,,,14.022044658660889,14.530997276306152,14.530997276306152,15.132973194122314,right,0.5921070575714111,None,,,,4,GA4,2025-08-20_15h21.08.354,mlcm_experiment_whites_illusion,,2025.1.1,59.775508924346845,2025-08-20 15h21.14.515997 +0200,
13,0.42,0.5,1.0,0.0,imgs/white_0.42_0.5_1.0_0.0.png,13,13,0,right,0.5080440044403076,None,0,13,13,13,15.146565198898315,,,,,,15.140458106994629,15.647108316421509,15.647108316421509,16.16686487197876,right,0.5080440044403076,None,,,,4,GA4,2025-08-20_15h21.08.354,mlcm_experiment_whites_illusion,,2025.1.1,59.775508924346845,2025-08-20 15h21.14.515997 +0200,
14,0.58,0.25,1.0,1.0,imgs/white_0.58_0.25_1.0_1.0.png,14,14,0,left,0.5934715270996094,None,0,14,14,14,16.180364847183228,,,,,,16.173954248428345,16.68142056465149,16.68142056465149,17.28668522834778,left,0.5934715270996094,None,,,,4,GA4,2025-08-20_15h21.08.354,mlcm_experiment_whites_illusion,,2025.1.1,59.775508924346845,2025-08-20 15h21.14.515997 +0200,
15,0.33,0.67,1.0,1.0,imgs/white_0.33_0.67_1.0_1.0.png,15,15,0,right,0.4603886604309082,None,0,15,15,15,17.29993724822998,,,,,,17.293160915374756,17.79852843284607,17.79852843284607,18.26831078529358,right,0.4603886604309082,None,,,,4,GA4,2025-08-20_15h21.08.354,mlcm_experiment_whites_illusion,,2025.1.1,59.775508924346845,2025-08-20 15h21.14.515997 +0200,
16,0.25,0.25,1.0,0.0,imgs/white_0.25_0.25_1.0_0.0.png,16,16,0,right,2.436574935913086,None,0,16,16,16,18.28235411643982,,,,,,18.27471375465393,18.78302812576294,18.78302812576294,21.239752292633057,right,2.436574935913086,None,,,,4,GA4,2025-08-20_15h21.08.354,mlcm_experiment_whites_illusion,,2025.1.1,59.775508924346845,2025-08-20 15h21.14.515997 +0200,
17,0.33,0.42,1.0,1.0,imgs/white_0.33_0.42_1.0_1.0.png,17,17,0,right,0.7468516826629639,None,0,17,17,17,21.257172107696533,,,,,,21.25290870666504,21.75228238105774,21.75228238105774,22.507259130477905,right,0.7468516826629639,None,,,,4,GA4,2025-08-20_15h21.08.354,mlcm_experiment_whites_illusion,,2025.1.1,59.775508924346845,2025-08-20 15h21.14.515997 +0200,
18,0.75,0.67,1.0,1.0,imgs/white_0.75_0.67_1.0_1.0.png,18,18,0,left,0.9429128170013428,None,0,18,18,18,22.51913619041443,,,,,,22.513625621795654,23.020102500915527,23.020102500915527,23.97338557243347,left,0.9429128170013428,None,,,,4,GA4,2025-08-20_15h21.08.354,mlcm_experiment_whites_illusion,,2025.1.1,59.775508924346845,2025-08-20 15h21.14.515997 +0200,
19,0.25,0.67,0.0,0.0,imgs/white_0.25_0.67_0.0_0.0.png,19,19,0,right,0.5794377326965332,None,0,19,19,19,23.986714363098145,,,,,,23.98341989517212,24.487826585769653,24.487826585769653,25.07411766052246,right,0.5794377326965332,None,,,,4,GA4,2025-08-20_15h21.08.354,mlcm_experiment_whites_illusion,,2025.1.1,59.775508924346845,2025-08-20 15h21.14.515997 +0200,
20,0.42,0.42,1.0,0.0,imgs/white_0.42_0.42_1.0_0.0.png,20,20,0,right,0.9340674877166748,None,0,20,20,20,25.088078022003174,,,,,,25.08064103126526,25.588857889175415,25.588857889175415,26.542269945144653,right,0.9340674877166748,None,,,,4,GA4,2025-08-20_15h21.08.354,mlcm_experiment_whites_illusion,,2025.1.1,59.775508924346845,2025-08-20 15h21.14.515997 +0200,
21,0.5,0.75,1.0,0.0,imgs/white_0.5_0.75_1.0_0.0.png,21,21,0,right,0.5704319477081299,None,0,21,21,21,26.557824850082397,,,,,,26.549596548080444,27.056565761566162,27.056565761566162,27.643554210662842,right,0.5704319477081299,None,,,,4,GA4,2025-08-20_15h21.08.354,mlcm_experiment_whites_illusion,,2025.1.1,59.775508924346845,2025-08-20 15h21.14.515997 +0200,
22,0.33,0.58,0.0,0.0,imgs/white_0.33_0.58_0.0_0.0.png,22,22,0,right,0.5177397727966309,None,0,22,22,22,27.65876078605652,,,,,,27.651243925094604,28.157801389694214,28.157801389694214,28.693865060806274,right,0.5177397727966309,None,,,,4,GA4,2025-08-20_15h21.08.354,mlcm_experiment_whites_illusion,,2025.1.1,59.775508924346845,2025-08-20 15h21.14.515997 +0200,
23,0.25,0.67,1.0,1.0,imgs/white_0.25_0.67_1.0_1.0.png,23,23,0,right,0.5038659572601318,None,0,23,23,23,28.70771360397339,,,,,,28.700515270233154,29.211113929748535,29.211113929748535,29.72827911376953,right,0.5038659572601318,None,,,,4,GA4,2025-08-20_15h21.08.354,mlcm_experiment_whites_illusion,,2025.1.1,59.775508924346845,2025-08-20 15h21.14.515997 +0200,
24,0.67,0.67,1.0,0.0,imgs/white_0.67_0.67_1.0_0.0.png,24,24,0,right,0.4964609146118164,None,0,24,24,24,29.743980884552002,,,,,,29.735907554626465,30.242886304855347,30.242886304855347,30.745339155197144,right,0.4964609146118164,None,,,,4,GA4,2025-08-20_15h21.08.354,mlcm_experiment_whites_illusion,,2025.1.1,59.775508924346845,2025-08-20 15h21.14.515997 +0200,
25,0.33,0.25,1.0,0.0,imgs/white_0.33_0.25_1.0_0.0.png,25,25,0,left,0.797809362411499,None,0,25,25,25,30.76004672050476,,,,,,30.751784086227417,31.261636972427368,31.261636972427368,32.06367230415344,left,0.797809362411499,None,,,,4,GA4,2025-08-20_15h21.08.354,mlcm_experiment_whites_illusion,,2025.1.1,59.775508924346845,2025-08-20 15h21.14.515997 +0200,
26,0.75,0.25,0.0,0.0,imgs/white_0.75_0.25_0.0_0.0.png,26,26,0,left,0.5451271533966064,None,0,26,26,26,32.07936692237854,,,,,,32.07350730895996,32.57814288139343,32.57814288139343,33.132503271102905,left,0.5451271533966064,None,,,,4,GA4,2025-08-20_15h21.08.354,mlcm_experiment_whites_illusion,,2025.1.1,59.775508924346845,2025-08-20 15h21.14.515997 +0200,
27,0.5,0.58,1.0,1.0,imgs/white_0.5_0.58_1.0_1.0.png,27,27,0,right,1.1015408039093018,None,0,27,27,27,33.14673972129822,,,,,,33.13850784301758,33.64566254615784,33.64566254615784,34.765947341918945,right,1.1015408039093018,None,,,,4,GA4,2025-08-20_15h21.08.354,mlcm_experiment_whites_illusion,,2025.1.1,59.775508924346845,2025-08-20 15h21.14.515997 +0200,
28,0.33,0.33,0.0,1.0,imgs/white_0.33_0.33_0.0_1.0.png,28,28,0,left,0.5388889312744141,None,0,28,28,28,34.77954459190369,,,,,,34.772608280181885,35.280359506607056,35.280359506607056,35.83357810974121,left,0.5388889312744141,None,,,,4,GA4,2025-08-20_15h21.08.354,mlcm_experiment_whites_illusion,,2025.1.1,59.775508924346845,2025-08-20 15h21.14.515997 +0200,
29,0.58,0.42,1.0,0.0,imgs/white_0.58_0.42_1.0_0.0.png,29,29,0,right,1.479341983795166,None,0,29,29,29,35.84701991081238,,,,,,35.842750787734985,36.34804058074951,36.34804058074951,37.83552646636963,right,1.479341983795166,None,,,,4,GA4,2025-08-20_15h21.08.354,mlcm_experiment_whites_illusion,,2025.1.1,59.775508924346845,2025-08-20 15h21.14.515997 +0200,
30,0.5,0.5,1.0,0.0,imgs/white_0.5_0.5_1.0_0.0.png,30,30,0,right,0.5339574813842773,None,0,30,30,30,37.851359605789185,,,,,,37.84570598602295,38.34941864013672,38.34941864013672,38.88696503639221,right,0.5339574813842773,None,,,,4,GA4,2025-08-20_15h21.08.354,mlcm_experiment_whites_illusion,,2025.1.1,59.775508924346845,2025-08-20 15h21.14.515997 +0200,
31,0.67,0.25,0.0,1.0,imgs/white_0.67_0.25_0.0_1.0.png,31,31,0,left,0.6181838512420654,None,0,31,31,31,38.90425705909729,,,,,,38.89866852760315,39.40034294128418,39.40034294128418,40.01948165893555,left,0.6181838512420654,None,,,,4,GA4,2025-08-20_15h21.08.354,mlcm_experiment_whites_illusion,,2025.1.1,59.775508924346845,2025-08-20 15h21.14.515997 +0200,
32,0.33,0.25,1.0,1.0,imgs/white_0.33_0.25_1.0_1.0.png,32,32,0,left,0.6127231121063232,None,0,32,32,32,40.03556156158447,,,,,,40.02156615257263,40.534711599349976,40.534711599349976,41.154438972473145,left,0.6127231121063232,None,,,,4,GA4,2025-08-20_15h21.08.354,mlcm_experiment_whites_illusion,,2025.1.1,59.775508924346845,2025-08-20 15h21.14.515997 +0200,
33,0.58,0.42,0.0,0.0,imgs/white_0.58_0.42_0.0_0.0.png,33,33,0,left,0.5995299816131592,None,0,33,33,33,41.170215129852295,,,,,,41.16207218170166,41.668956995010376,41.668956995010376,42.272499799728394,left,0.5995299816131592,None,,,,4,GA4,2025-08-20_15h21.08.354,mlcm_experiment_whites_illusion,,2025.1.1,59.775508924346845,2025-08-20 15h21.14.515997 +0200,
34,0.25,0.58,1.0,0.0,imgs/white_0.25_0.58_1.0_0.0.png,34,34,0,right,0.5046823024749756,None,0,34,34,34,42.28588247299194,,,,,,42.280356884002686,42.78669762611389,42.78669762611389,43.306461334228516,right,0.5046823024749756,None,,,,4,GA4,2025-08-20_15h21.08.354,mlcm_experiment_whites_illusion,,2025.1.1,59.775508924346845,2025-08-20 15h21.14.515997 +0200,
35,0.25,0.33,1.0,0.0,imgs/white_0.25_0.33_1.0_0.0.png,35,35,0,right,0.5505023002624512,None,0,35,35,35,43.32007837295532,,,,,,43.313074827194214,43.82089829444885,43.82089829444885,44.374507665634155,right,0.5505023002624512,None,,,,4,GA4,2025-08-20_15h21.08.354,mlcm_experiment_whites_illusion,,2025.1.1,59.775508924346845,2025-08-20 15h21.14.515997 +0200,
36,0.58,0.67,0.0,1.0,imgs/white_0.58_0.67_0.0_1.0.png,36,36,0,left,0.7551517486572266,None,0,36,36,36,44.38764810562134,,,,,,44.38142108917236,44.888306856155396,44.888306856155396,45.658133029937744,left,0.7551517486572266,None,,,,4,GA4,2025-08-20_15h21.08.354,mlcm_experiment_whites_illusion,,2025.1.1,59.775508924346845,2025-08-20 15h21.14.515997 +0200,
37,0.75,0.58,0.0,0.0,imgs/white_0.75_0.58_0.0_0.0.png,37,37,0,left,0.5747549533843994,None,0,37,37,37,45.672070264816284,,,,,,45.66524291038513,46.172635078430176,46.172635078430176,46.75928068161011,left,0.5747549533843994,None,,,,4,GA4,2025-08-20_15h21.08.354,mlcm_experiment_whites_illusion,,2025.1.1,59.775508924346845,2025-08-20 15h21.14.515997 +0200,
38,0.75,0.42,1.0,0.0,imgs/white_0.75_0.42_1.0_0.0.png,38,38,0,left,0.5377328395843506,None,0,38,38,38,46.7728853225708,,,,,,46.7663733959198,47.27377247810364,47.27377247810364,47.8270046710968,left,0.5377328395843506,None,,,,4,GA4,2025-08-20_15h21.08.354,mlcm_experiment_whites_illusion,,2025.1.1,59.775508924346845,2025-08-20 15h21.14.515997 +0200,
39,0.67,0.75,1.0,0.0,imgs/white_0.67_0.75_1.0_0.0.png,39,39,0,right,0.8541336059570312,None,0,39,39,39,47.84270668029785,,,,,,47.8341019153595,48.3412709236145,48.3412709236145,49.213491916656494,right,0.8541336059570312,None,,,,4,GA4,2025-08-20_15h21.08.354,mlcm_experiment_whites_illusion,,2025.1.1,59.775508924346845,2025-08-20 15h21.14.515997 +0200,
40,0.5,0.58,0.0,1.0,imgs/white_0.5_0.58_0.0_1.0.png,40,40,0,left,0.6456115245819092,None,0,40,40,40,49.23036766052246,,,,,,49.22595953941345,49.72592759132385,49.72592759132385,50.37876224517822,left,0.6456115245819092,None,,,,4,GA4,2025-08-20_15h21.08.354,mlcm_experiment_whites_illusion,,2025.1.1,59.775508924346845,2025-08-20 15h21.14.515997 +0200,
41,0.75,0.58,1.0,0.0,imgs/white_0.75_0.58_1.0_0.0.png,41,41,0,left,1.1247410774230957,None,0,41,41,41,50.39316153526306,,,,,,50.38591933250427,50.89490580558777,50.89490580558777,52.03064727783203,left,1.1247410774230957,None,,,,4,GA4,2025-08-20_15h21.08.354,mlcm_experiment_whites_illusion,,2025.1.1,59.775508924346845,2025-08-20 15h21.14.515997 +0200,
42,0.67,0.5,1.0,0.0,imgs/white_0.67_0.5_1.0_0.0.png,42,42,0,right,0.6193263530731201,None,0,42,42,42,52.046329736709595,,,,,,52.04101634025574,52.544816970825195,52.544816970825195,53.182061195373535,right,0.6193263530731201,None,,,,4,GA4,2025-08-20_15h21.08.354,mlcm_experiment_whites_illusion,,2025.1.1,59.775508924346845,2025-08-20 15h21.14.515997 +0200,
43,0.67,0.25,1.0,0.0,imgs/white_0.67_0.25_1.0_0.0.png,43,43,0,left,0.5240168571472168,None,0,43,43,43,53.196911573410034,,,,,,53.189383029937744,53.69568204879761,53.69568204879761,54.232532262802124,left,0.5240168571472168,None,,,,4,GA4,2025-08-20_15h21.08.354,mlcm_experiment_whites_illusion,,2025.1.1,59.775508924346845,2025-08-20 15h21.14.515997 +0200,
44,0.75,0.75,1.0,0.0,imgs/white_0.75_0.75_1.0_0.0.png,44,44,0,right,0.6247820854187012,None,0,44,44,44,54.248059034347534,,,,,,54.24011278152466,54.74687194824219,54.74687194824219,55.38299202919006,right,0.6247820854187012,None,,,,4,GA4,2025-08-20_15h21.08.354,mlcm_experiment_whites_illusion,,2025.1.1,59.775508924346845,2025-08-20 15h21.14.515997 +0200,
45,0.75,0.33,1.0,0.0,imgs/white_0.75_0.33_1.0_0.0.png,45,45,0,left,0.6900534629821777,None,0,45,45,45,55.39726734161377,,,,,,55.390583992004395,55.89749360084534,55.89749360084534,56.60121488571167,left,0.6900534629821777,None,,,,4,GA4,2025-08-20_15h21.08.354,mlcm_experiment_whites_illusion,,2025.1.1,59.775508924346845,2025-08-20 15h21.14.515997 +0200,
46,0.67,0.5,0.0,0.0,imgs/white_0.67_0.5_0.0_0.0.png,46,46,0,left,0.5841550827026367,None,0,46,46,46,56.61444807052612,,,,,,56.60827708244324,57.11537170410156,57.11537170410156,57.72059082984924,left,0.5841550827026367,None,,,,4,GA4,2025-08-20_15h21.08.354,mlcm_experiment_whites_illusion,,2025.1.1,59.775508924346845,2025-08-20 15h21.14.515997 +0200,
47,0.5,0.25,1.0,1.0,imgs/white_0.5_0.25_1.0_1.0.png,47,47,0,left,0.5630640983581543,None,0,47,47,47,57.73469924926758,,,,,,57.72908043861389,58.23277568817139,58.23277568817139,58.80254578590393,left,0.5630640983581543,None,,,,4,GA4,2025-08-20_15h21.08.354,mlcm_experiment_whites_illusion,,2025.1.1,59.775508924346845,2025-08-20 15h21.14.515997 +0200,
48,0.42,0.33,1.0,0.0,imgs/white_0.42_0.33_1.0_0.0.png,48,48,0,right,0.5726907253265381,None,0,48,48,48,58.81859612464905,,,,,,58.81001043319702,59.31838083267212,59.31838083267212,59.90336775779724,right,0.5726907253265381,None,,,,4,GA4,2025-08-20_15h21.08.354,mlcm_experiment_whites_illusion,,2025.1.1,59.775508924346845,2025-08-20 15h21.14.515997 +0200,
49,0.5,0.67,1.0,0.0,imgs/white_0.5_0.67_1.0_0.0.png,49,49,0,right,0.4895915985107422,None,0,49,49,49,59.91895270347595,,,,,,59.90720248222351,60.41810345649719,60.41810345649719,60.9220232963562,right,0.4895915985107422,None,,,,4,GA4,2025-08-20_15h21.08.354,mlcm_experiment_whites_illusion,,2025.1.1,59.775508924346845,2025-08-20 15h21.14.515997 +0200,
50,0.42,0.67,0.0,0.0,imgs/white_0.42_0.67_0.0_0.0.png,50,50,0,right,0.5110213756561279,None,0,50,50,50,60.93728446960449,,,,,,60.9296760559082,61.43685722351074,61.43685722351074,61.95491647720337,right,0.5110213756561279,None,,,,4,GA4,2025-08-20_15h21.08.354,mlcm_experiment_whites_illusion,,2025.1.1,59.775508924346845,2025-08-20 15h21.14.515997 +0200,
51,0.33,0.5,1.0,0.0,imgs/white_0.33_0.5_1.0_0.0.png,51,51,0,right,0.46962809562683105,None,0,51,51,51,61.96932625770569,,,,,,61.96274542808533,62.46995234489441,62.46995234489441,62.95865726470947,right,0.46962809562683105,None,,,,4,GA4,2025-08-20_15h21.08.354,mlcm_experiment_whites_illusion,,2025.1.1,59.775508924346845,2025-08-20 15h21.14.515997 +0200,
52,0.25,0.42,1.0,1.0,imgs/white_0.25_0.42_1.0_1.0.png,52,52,0,right,0.8530704975128174,None,0,52,52,52,62.96991539001465,,,,,,62.964484214782715,63.47071647644043,63.47071647644043,64.34213328361511,right,0.8530704975128174,None,,,,4,GA4,2025-08-20_15h21.08.354,mlcm_experiment_whites_illusion,,2025.1.1,59.775508924346845,2025-08-20 15h21.14.515997 +0200,
53,0.75,0.33,0.0,0.0,imgs/white_0.75_0.33_0.0_0.0.png,53,53,0,left,0.5724799633026123,None,0,53,53,53,64.35645341873169,,,,,,64.34969973564148,64.85538268089294,64.85538268089294,65.44178581237793,left,0.5724799633026123,None,,,,4,GA4,2025-08-20_15h21.08.354,mlcm_experiment_whites_illusion,,2025.1.1,59.775508924346845,2025-08-20 15h21.14.515997 +0200,
54,0.5,0.67,1.0,1.0,imgs/white_0.5_0.67_1.0_1.0.png,54,54,0,right,0.8321797847747803,None,0,54,54,54,65.45590090751648,,,,,,65.44912981987,65.95604395866394,65.95604395866394,66.7937560081482,right,0.8321797847747803,None,,,,4,GA4,2025-08-20_15h21.08.354,mlcm_experiment_whites_illusion,,2025.1.1,59.775508924346845,2025-08-20 15h21.14.515997 +0200,
55,0.67,0.58,1.0,1.0,imgs/white_0.67_0.58_1.0_1.0.png,55,55,0,left,0.6491100788116455,None,0,55,55,55,66.80843901634216,,,,,,66.8007402420044,67.30731892585754,67.30731892585754,67.95918321609497,left,0.6491100788116455,None,,,,4,GA4,2025-08-20_15h21.08.354,mlcm_experiment_whites_illusion,,2025.1.1,59.775508924346845,2025-08-20 15h21.14.515997 +0200,
56,0.5,0.75,0.0,0.0,imgs/white_0.5_0.75_0.0_0.0.png,56,56,0,right,0.5132813453674316,None,0,56,56,56,67.97628951072693,,,,,,67.96925115585327,68.47484302520752,68.47484302520752,68.99631667137146,right,0.5132813453674316,None,,,,4,GA4,2025-08-20_15h21.08.354,mlcm_experiment_whites_illusion,,2025.1.1,59.775508924346845,2025-08-20 15h21.14.515997 +0200,
57,0.25,0.33,0.0,0.0,imgs/white_0.25_0.33_0.0_0.0.png,57,57,0,right,0.7346608638763428,None,0,57,57,57,69.01035213470459,,,,,,69.00298595428467,69.50915050506592,69.50915050506592,70.26235723495483,right,0.7346608638763428,None,,,,4,GA4,2025-08-20_15h21.08.354,mlcm_experiment_whites_illusion,,2025.1.1,59.775508924346845,2025-08-20 15h21.14.515997 +0200,
58,0.67,0.33,0.0,1.0,imgs/white_0.67_0.33_0.0_1.0.png,58,58,0,left,0.5948655605316162,None,0,58,58,58,70.27590775489807,,,,,,70.26929211616516,70.77668356895447,70.77668356895447,71.38004803657532,left,0.5948655605316162,None,,,,4,GA4,2025-08-20_15h21.08.354,mlcm_experiment_whites_illusion,,2025.1.1,59.775508924346845,2025-08-20 15h21.14.515997 +0200,
59,0.67,0.75,0.0,1.0,imgs/white_0.67_0.75_0.0_1.0.png,59,59,0,left,0.5095036029815674,None,0,59,59,59,71.39544200897217,,,,,,71.38406991958618,71.89452886581421,71.89452886581421,72.41373753547668,left,0.5095036029815674,None,,,,4,GA4,2025-08-20_15h21.08.354,mlcm_experiment_whites_illusion,,2025.1.1,59.775508924346845,2025-08-20 15h21.14.515997 +0200,
60,0.42,0.75,1.0,0.0,imgs/white_0.42_0.75_1.0_0.0.png,60,60,0,right,0.5552608966827393,None,0,60,60,60,72.42797422409058,,,,,,72.421226978302,72.92878293991089,72.92878293991089,73.49841117858887,right,0.5552608966827393,None,,,,4,GA4,2025-08-20_15h21.08.354,mlcm_experiment_whites_illusion,,2025.1.1,59.775508924346845,2025-08-20 15h21.14.515997 +0200,
61,0.33,0.58,0.0,1.0,imgs/white_0.33_0.58_0.0_1.0.png,61,61,0,right,0.8780250549316406,None,0,61,61,61,73.51396679878235,,,,,,73.50645661354065,74.01314187049866,74.01314187049866,74.89935445785522,right,0.8780250549316406,None,,,,4,GA4,2025-08-20_15h21.08.354,mlcm_experiment_whites_illusion,,2025.1.1,59.775508924346845,2025-08-20 15h21.14.515997 +0200,
62,0.42,0.75,1.0,1.0,imgs/white_0.42_0.75_1.0_1.0.png,62,62,0,right,0.4861316680908203,None,0,62,62,62,74.91519927978516,,,,,,74.90376210212708,75.41415548324585,75.41415548324585,75.91718888282776,right,0.4861316680908203,None,,,,4,GA4,2025-08-20_15h21.08.354,mlcm_experiment_whites_illusion,,2025.1.1,59.775508924346845,2025-08-20 15h21.14.515997 +0200,
63,0.5,0.42,0.0,0.0,imgs/white_0.5_0.42_0.0_0.0.png,63,63,0,left,0.9724605083465576,None,0,63,63,63,75.93121480941772,,,,,,75.92452692985535,76.43175005912781,76.43175005912781,77.4189567565918,left,0.9724605083465576,None,,,,4,GA4,2025-08-20_15h21.08.354,mlcm_experiment_whites_illusion,,2025.1.1,59.775508924346845,2025-08-20 15h21.14.515997 +0200,
64,0.5,0.25,0.0,0.0,imgs/white_0.5_0.25_0.0_0.0.png,64,64,0,left,0.5112829208374023,None,0,64,64,64,77.4320740699768,,,,,,77.42584896087646,77.93284153938293,77.93284153938293,78.45247101783752,left,0.5112829208374023,None,,,,4,GA4,2025-08-20_15h21.08.354,mlcm_experiment_whites_illusion,,2025.1.1,59.775508924346845,2025-08-20 15h21.14.515997 +0200,
65,0.33,0.67,0.0,1.0,imgs/white_0.33_0.67_0.0_1.0.png,65,65,0,right,0.6352040767669678,None,0,65,65,65,78.468674659729,,,,,,78.45911431312561,78.9687979221344,78.9687979221344,79.62097477912903,right,0.6352040767669678,None,,,,4,GA4,2025-08-20_15h21.08.354,mlcm_experiment_whites_illusion,,2025.1.1,59.775508924346845,2025-08-20 15h21.14.515997 +0200,
66,0.58,0.5,0.0,0.0,imgs/white_0.58_0.5_0.0_0.0.png,66,66,0,left,0.6773433685302734,None,0,66,66,66,79.63425469398499,,,,,,79.62957096099854,80.13477873802185,80.13477873802185,80.8212080001831,left,0.6773433685302734,None,,,,4,GA4,2025-08-20_15h21.08.354,mlcm_experiment_whites_illusion,,2025.1.1,59.775508924346845,2025-08-20 15h21.14.515997 +0200,
67,0.25,0.75,1.0,1.0,imgs/white_0.25_0.75_1.0_1.0.png,67,67,0,right,0.5002965927124023,None,0,67,67,67,80.83499026298523,,,,,,80.8283760547638,81.33584833145142,81.33584833145142,81.83928918838501,right,0.5002965927124023,None,,,,4,GA4,2025-08-20_15h21.08.354,mlcm_experiment_whites_illusion,,2025.1.1,59.775508924346845,2025-08-20 15h21.14.515997 +0200,
68,0.5,0.25,1.0,0.0,imgs/white_0.5_0.25_1.0_0.0.png,68,68,0,left,0.7949199676513672,None,0,68,68,68,81.85254788398743,,,,,,81.84657764434814,82.3533263206482,82.3533263206482,83.15661287307739,left,0.7949199676513672,None,,,,4,GA4,2025-08-20_15h21.08.354,mlcm_experiment_whites_illusion,,2025.1.1,59.775508924346845,2025-08-20 15h21.14.515997 +0200,
69,0.67,0.58,0.0,0.0,imgs/white_0.67_0.58_0.0_0.0.png,69,69,0,left,0.589064359664917,None,0,69,69,69,83.17231678962708,,,,,,83.16611647605896,83.67106890678406,83.67106890678406,84.27479147911072,left,0.589064359664917,None,,,,4,GA4,2025-08-20_15h21.08.354,mlcm_experiment_whites_illusion,,2025.1.1,59.775508924346845,2025-08-20 15h21.14.515997 +0200,
70,0.33,0.42,1.0,0.0,imgs/white_0.33_0.42_1.0_0.0.png,70,70,0,right,0.5039258003234863,None,0,70,70,70,84.287668466568,,,,,,84.28216409683228,84.78847146034241,84.78847146034241,85.30941104888916,right,0.5039258003234863,None,,,,4,GA4,2025-08-20_15h21.08.354,mlcm_experiment_whites_illusion,,2025.1.1,59.775508924346845,2025-08-20 15h21.14.515997 +0200,
71,0.58,0.42,0.0,1.0,imgs/white_0.58_0.42_0.0_1.0.png,71,71,0,left,0.5649864673614502,None,0,71,71,71,85.32397794723511,,,,,,85.3160936832428,85.82279634475708,85.82279634475708,86.39057230949402,left,0.5649864673614502,None,,,,4,GA4,2025-08-20_15h21.08.354,mlcm_experiment_whites_illusion,,2025.1.1,59.775508924346845,2025-08-20 15h21.14.515997 +0200,
72,0.5,0.58,1.0,0.0,imgs/white_0.5_0.58_1.0_0.0.png,72,72,0,right,0.5217361450195312,None,0,72,72,72,86.40826964378357,,,,,,86.39390444755554,86.89051389694214,86.89051389694214,87.42690062522888,right,0.5217361450195312,None,,,,4,GA4,2025-08-20_15h21.08.354,mlcm_experiment_whites_illusion,,2025.1.1,59.775508924346845,2025-08-20 15h21.14.515997 +0200,
73,0.25,0.42,1.0,0.0,imgs/white_0.25_0.42_1.0_0.0.png,73,73,0,right,0.43890976905822754,None,0,73,73,73,87.44055318832397,,,,,,87.43367838859558,87.94131469726562,87.94131469726562,88.39458680152893,right,0.43890976905822754,None,,,,4,GA4,2025-08-20_15h21.08.354,mlcm_experiment_whites_illusion,,2025.1.1,59.775508924346845,2025-08-20 15h21.14.515997 +0200,
74,0.67,0.42,1.0,0.0,imgs/white_0.67_0.42_1.0_0.0.png,74,74,0,left,1.069354772567749,None,0,74,74,74,88.40791630744934,,,,,,88.40211296081543,88.91017031669617,88.91017031669617,89.99530267715454,left,1.069354772567749,None,,,,4,GA4,2025-08-20_15h21.08.354,mlcm_experiment_whites_illusion,,2025.1.1,59.775508924346845,2025-08-20 15h21.14.515997 +0200,
75,0.75,0.58,0.0,1.0,imgs/white_0.75_0.58_0.0_1.0.png,75,75,0,left,0.46991944313049316,None,0,75,75,75,90.01201367378235,,,,,,90.00182175636292,90.51018714904785,90.51018714904785,90.99690175056458,left,0.46991944313049316,None,,,,4,GA4,2025-08-20_15h21.08.354,mlcm_experiment_whites_illusion,,2025.1.1,59.775508924346845,2025-08-20 15h21.14.515997 +0200,
76,0.75,0.5,1.0,1.0,imgs/white_0.75_0.5_1.0_1.0.png,76,76,0,left,0.5973865985870361,None,0,76,76,76,91.01046538352966,,,,,,91.00460243225098,91.51093029975891,91.51093029975891,92.11420774459839,left,0.5973865985870361,None,,,,4,GA4,2025-08-20_15h21.08.354,mlcm_experiment_whites_illusion,,2025.1.1,59.775508924346845,2025-08-20 15h21.14.515997 +0200,
77,0.75,0.33,0.0,1.0,imgs/white_0.75_0.33_0.0_1.0.png,77,77,0,left,0.5281839370727539,None,0,77,77,77,92.12992787361145,,,,,,92.12188696861267,92.62855792045593,92.62855792045593,93.16436290740967,left,0.5281839370727539,None,,,,4,GA4,2025-08-20_15h21.08.354,mlcm_experiment_whites_illusion,,2025.1.1,59.775508924346845,2025-08-20 15h21.14.515997 +0200,
78,0.58,0.67,1.0,0.0,imgs/white_0.58_0.67_1.0_0.0.png,78,78,0,right,0.5805928707122803,None,0,78,78,78,93.18091297149658,,,,,,93.17282557487488,93.67971396446228,93.67971396446228,94.2668526172638,right,0.5805928707122803,None,,,,4,GA4,2025-08-20_15h21.08.354,mlcm_experiment_whites_illusion,,2025.1.1,59.775508924346845,2025-08-20 15h21.14.515997 +0200,
79,0.5,0.25,0.0,1.0,imgs/white_0.5_0.25_0.0_1.0.png,79,79,0,left,0.608090877532959,None,0,79,79,79,94.28195190429688,,,,,,94.27286958694458,94.78033471107483,94.78033471107483,95.3996479511261,left,0.608090877532959,None,,,,4,GA4,2025-08-20_15h21.08.354,mlcm_experiment_whites_illusion,,2025.1.1,59.775508924346845,2025-08-20 15h21.14.515997 +0200,
80,0.25,0.75,1.0,0.0,imgs/white_0.25_0.75_1.0_0.0.png,80,80,0,right,0.769911527633667,None,0,80,80,80,95.4160418510437,,,,,,95.40718579292297,95.91479516029358,95.91479516029358,96.70111870765686,right,0.769911527633667,None,,,,4,GA4,2025-08-20_15h21.08.354,mlcm_experiment_whites_illusion,,2025.1.1,59.775508924346845,2025-08-20 15h21.14.515997 +0200,
81,0.67,0.75,0.0,0.0,imgs/white_0.67_0.75_0.0_0.0.png,81,81,0,right,0.7324872016906738,None,0,81,81,81,96.71522569656372,,,,,,96.70811820030212,97.21592545509338,97.21592545509338,97.9533441066742,right,0.7324872016906738,None,,,,4,GA4,2025-08-20_15h21.08.354,mlcm_experiment_whites_illusion,,2025.1.1,59.775508924346845,2025-08-20 15h21.14.515997 +0200,
82,0.58,0.33,0.0,1.0,imgs/white_0.58_0.33_0.0_1.0.png,82,82,0,left,0.5935423374176025,None,0,82,82,82,97.96940994262695,,,,,,97.96376395225525,98.4670205116272,98.4670205116272,99.06988978385925,left,0.5935423374176025,None,,,,4,GA4,2025-08-20_15h21.08.354,mlcm_experiment_whites_illusion,,2025.1.1,59.775508924346845,2025-08-20 15h21.14.515997 +0200,
83,0.5,0.33,1.0,1.0,imgs/white_0.5_0.33_1.0_1.0.png,83,83,0,left,0.635472297668457,None,0,83,83,83,99.08368229866028,,,,,,99.07726097106934,99.58429145812988,99.58429145812988,100.23717546463013,left,0.635472297668457,None,,,,4,GA4,2025-08-20_15h21.08.354,mlcm_experiment_whites_illusion,,2025.1.1,59.775508924346845,2025-08-20 15h21.14.515997 +0200,
84,0.42,0.5,0.0,1.0,imgs/white_0.42_0.5_0.0_1.0.png,84,84,0,left,0.5568172931671143,None,0,84,84,84,100.25294089317322,,,,,,100.23991322517395,100.75160026550293,100.75160026550293,101.32171130180359,left,0.5568172931671143,None,,,,4,GA4,2025-08-20_15h21.08.354,mlcm_experiment_whites_illusion,,2025.1.1,59.775508924346845,2025-08-20 15h21.14.515997 +0200,
85,0.5,0.75,0.0,1.0,imgs/white_0.5_0.75_0.0_1.0.png,85,85,0,right,0.8962268829345703,None,0,85,85,85,101.33734583854675,,,,,,101.32853841781616,101.83622455596924,101.83622455596924,102.73894762992859,right,0.8962268829345703,None,,,,4,GA4,2025-08-20_15h21.08.354,mlcm_experiment_whites_illusion,,2025.1.1,59.775508924346845,2025-08-20 15h21.14.515997 +0200,
86,0.42,0.75,0.0,0.0,imgs/white_0.42_0.75_0.0_0.0.png,86,86,0,right,0.5583112239837646,None,0,86,86,86,102.75563979148865,,,,,,102.74643611907959,103.25429439544678,103.25429439544678,103.82429313659668,right,0.5583112239837646,None,,,,4,GA4,2025-08-20_15h21.08.354,mlcm_experiment_whites_illusion,,2025.1.1,59.775508924346845,2025-08-20 15h21.14.515997 +0200,
87,0.25,0.42,0.0,0.0,imgs/white_0.25_0.42_0.0_0.0.png,87,87,0,right,0.617919921875,None,0,87,87,87,103.83784413337708,,,,,,103.83124923706055,104.33866095542908,104.33866095542908,104.97552847862244,right,0.617919921875,None,,,,4,GA4,2025-08-20_15h21.08.354,mlcm_experiment_whites_illusion,,2025.1.1,59.775508924346845,2025-08-20 15h21.14.515997 +0200,
88,0.42,0.58,1.0,1.0,imgs/white_0.42_0.58_1.0_1.0.png,88,88,0,right,0.6112265586853027,None,0,88,88,88,104.99134707450867,,,,,,104.98602199554443,105.48944687843323,105.48944687843323,106.10869216918945,right,0.6112265586853027,None,,,,4,GA4,2025-08-20_15h21.08.354,mlcm_experiment_whites_illusion,,2025.1.1,59.775508924346845,2025-08-20 15h21.14.515997 +0200,
89,0.42,0.25,1.0,0.0,imgs/white_0.42_0.25_1.0_0.0.png,89,89,0,left,1.628812313079834,None,0,89,89,89,106.123215675354,,,,,,106.11538314819336,106.62381887435913,106.62381887435913,108.26153755187988,left,1.628812313079834,None,,,,4,GA4,2025-08-20_15h21.08.354,mlcm_experiment_whites_illusion,,2025.1.1,59.775508924346845,2025-08-20 15h21.14.515997 +0200,
90,0.42,0.67,1.0,0.0,imgs/white_0.42_0.67_1.0_0.0.png,90,90,0,right,0.5568573474884033,None,0,90,90,90,108.27864527702332,,,,,,108.27304601669312,108.77583479881287,108.77583479881287,109.3460042476654,right,0.5568573474884033,None,,,,4,GA4,2025-08-20_15h21.08.354,mlcm_experiment_whites_illusion,,2025.1.1,59.775508924346845,2025-08-20 15h21.14.515997 +0200,
,,,,,,,,,,,,,,,,,,,,,,,,,,,,,109.41281509399414,109.41703772544861,111.36021137237549,4,GA4,2025-08-20_15h21.08.354,mlcm_experiment_whites_illusion,,2025.1.1,59.775508924346845,2025-08-20 15h21.14.515997 +0200,
