trial,lum1,lum2,c1,c2,im,thisN,thisTrialN,thisRepN,resp.keys,resp.rt,resp.duration,trials.thisRepN,trials.thisTrialN,trials.thisN,trials.thisIndex,thisRow.t,notes,instruct.started,ready.started,instrText.started,instruct.stopped,trial.started,resp.started,image.started,trial.stopped,trials.resp.keys,trials.resp.rt,trials.resp.duration,thanks.started,thanksText.started,thanks.stopped,session,participant,date,expName,expVersion,psychopyVersion,frameRate,expStart,
,,,,,,,,,,,,,,,,,,0.0077571868896484375,0.011538267135620117,0.011538267135620117,1.075141429901123,,,,,,,,,,,1,GA5,2025-08-20_15h39.14.305,mlcm_experiment_whites_illusion,,2025.1.1,59.96145818441744,2025-08-20 15h39.21.149565 +0200,
0,0.75,0.58,1.0,0.0,imgs/white_0.75_0.58_1.0_0.0.png,0,0,0,right,0.8203284740447998,None,0,0,0,0,1.102285385131836,,,,,,1.0956487655639648,1.5845322608947754,1.5845322608947754,2.421384334564209,right,0.8203284740447998,None,,,,1,GA5,2025-08-20_15h39.14.305,mlcm_experiment_whites_illusion,,2025.1.1,59.96145818441744,2025-08-20 15h39.21.149565 +0200,
1,0.5,0.5,1.0,0.0,imgs/white_0.5_0.5_1.0_0.0.png,1,1,0,right,0.5729665756225586,None,0,1,1,1,2.4377195835113525,,,,,,2.4322524070739746,2.9356606006622314,2.9356606006622314,3.5232691764831543,right,0.5729665756225586,None,,,,1,GA5,2025-08-20_15h39.14.305,mlcm_experiment_whites_illusion,,2025.1.1,59.96145818441744,2025-08-20 15h39.21.149565 +0200,
2,0.42,0.67,1.0,0.0,imgs/white_0.42_0.67_1.0_0.0.png,2,2,0,right,0.552452564239502,None,0,2,2,2,3.538013219833374,,,,,,3.5308163166046143,4.036443471908569,4.036443471908569,4.6065850257873535,right,0.552452564239502,None,,,,1,GA5,2025-08-20_15h39.14.305,mlcm_experiment_whites_illusion,,2025.1.1,59.96145818441744,2025-08-20 15h39.21.149565 +0200,
3,0.42,0.67,0.0,1.0,imgs/white_0.42_0.67_0.0_1.0.png,3,3,0,right,0.9878766536712646,None,0,3,3,3,4.622051239013672,,,,,,4.614543199539185,5.120783567428589,5.120783567428589,6.125258922576904,right,0.9878766536712646,None,,,,1,GA5,2025-08-20_15h39.14.305,mlcm_experiment_whites_illusion,,2025.1.1,59.96145818441744,2025-08-20 15h39.21.149565 +0200,
4,0.42,0.75,0.0,1.0,imgs/white_0.42_0.75_0.0_1.0.png,4,4,0,right,0.5660109519958496,None,0,4,4,4,6.139977693557739,,,,,,6.132357835769653,6.638786554336548,6.638786554336548,7.208569526672363,right,0.5660109519958496,None,,,,1,GA5,2025-08-20_15h39.14.305,mlcm_experiment_whites_illusion,,2025.1.1,59.96145818441744,2025-08-20 15h39.21.149565 +0200,
5,0.33,0.67,0.0,1.0,imgs/white_0.33_0.67_0.0_1.0.png,5,5,0,right,0.6576006412506104,None,0,5,5,5,7.222209215164185,,,,,,7.21614408493042,7.723034858703613,7.723034858703613,8.394206047058105,right,0.6576006412506104,None,,,,1,GA5,2025-08-20_15h39.14.305,mlcm_experiment_whites_illusion,,2025.1.1,59.96145818441744,2025-08-20 15h39.21.149565 +0200,
6,0.75,0.75,1.0,0.0,imgs/white_0.75_0.75_1.0_0.0.png,6,6,0,right,1.5134258270263672,None,0,6,6,6,8.41335391998291,,,,,,8.408529281616211,8.907352685928345,8.907352685928345,10.428118467330933,right,1.5134258270263672,None,,,,1,GA5,2025-08-20_15h39.14.305,mlcm_experiment_whites_illusion,,2025.1.1,59.96145818441744,2025-08-20 15h39.21.149565 +0200,
7,0.42,0.67,1.0,0.0,imgs/white_0.42_0.67_1.0_0.0.png,7,7,0,right,0.5502984523773193,None,0,7,7,7,10.443615198135376,,,,,,10.437799453735352,10.942293643951416,10.942293643951416,11.495517492294312,right,0.5502984523773193,None,,,,1,GA5,2025-08-20_15h39.14.305,mlcm_experiment_whites_illusion,,2025.1.1,59.96145818441744,2025-08-20 15h39.21.149565 +0200,
8,0.75,0.33,1.0,0.0,imgs/white_0.75_0.33_1.0_0.0.png,8,8,0,left,0.7136917114257812,None,0,8,8,8,11.511359691619873,,,,,,11.502928256988525,12.011174201965332,12.011174201965332,12.729968786239624,left,0.7136917114257812,None,,,,1,GA5,2025-08-20_15h39.14.305,mlcm_experiment_whites_illusion,,2025.1.1,59.96145818441744,2025-08-20 15h39.21.149565 +0200,
9,0.33,0.33,1.0,0.0,imgs/white_0.33_0.33_1.0_0.0.png,9,9,0,right,0.9765267372131348,None,0,9,9,9,12.743380784988403,,,,,,12.739574432373047,13.244303703308105,13.244303703308105,14.231590747833252,right,0.9765267372131348,None,,,,1,GA5,2025-08-20_15h39.14.305,mlcm_experiment_whites_illusion,,2025.1.1,59.96145818441744,2025-08-20 15h39.21.149565 +0200,
10,0.75,0.58,0.0,1.0,imgs/white_0.75_0.58_0.0_1.0.png,10,10,0,left,0.7400205135345459,None,0,10,10,10,14.248041868209839,,,,,,14.242974519729614,14.744895696640015,14.744895696640015,15.499205589294434,left,0.7400205135345459,None,,,,1,GA5,2025-08-20_15h39.14.305,mlcm_experiment_whites_illusion,,2025.1.1,59.96145818441744,2025-08-20 15h39.21.149565 +0200,
11,0.42,0.75,1.0,0.0,imgs/white_0.42_0.75_1.0_0.0.png,11,11,0,right,0.6954689025878906,None,0,11,11,11,15.512535095214844,,,,,,15.506234407424927,16.01340913772583,16.01340913772583,16.717101097106934,right,0.6954689025878906,None,,,,1,GA5,2025-08-20_15h39.14.305,mlcm_experiment_whites_illusion,,2025.1.1,59.96145818441744,2025-08-20 15h39.21.149565 +0200,
12,0.25,0.5,0.0,1.0,imgs/white_0.25_0.5_0.0_1.0.png,12,12,0,right,1.0216562747955322,None,0,12,12,12,16.730286598205566,,,,,,16.723836421966553,17.231165647506714,17.231165647506714,18.26820158958435,right,1.0216562747955322,None,,,,1,GA5,2025-08-20_15h39.14.305,mlcm_experiment_whites_illusion,,2025.1.1,59.96145818441744,2025-08-20 15h39.21.149565 +0200,
13,0.75,0.75,1.0,0.0,imgs/white_0.75_0.75_1.0_0.0.png,13,13,0,right,1.0463519096374512,None,0,13,13,13,18.283496856689453,,,,,,18.27797770500183,18.782458782196045,18.782458782196045,19.838011741638184,right,1.0463519096374512,None,,,,1,GA5,2025-08-20_15h39.14.305,mlcm_experiment_whites_illusion,,2025.1.1,59.96145818441744,2025-08-20 15h39.21.149565 +0200,
14,0.75,0.67,1.0,0.0,imgs/white_0.75_0.67_1.0_0.0.png,14,14,0,right,1.390472412109375,None,0,14,14,14,19.85163950920105,,,,,,19.843759536743164,20.35048818588257,20.35048818588257,21.754247903823853,right,1.390472412109375,None,,,,1,GA5,2025-08-20_15h39.14.305,mlcm_experiment_whites_illusion,,2025.1.1,59.96145818441744,2025-08-20 15h39.21.149565 +0200,
15,0.25,0.33,1.0,0.0,imgs/white_0.25_0.33_1.0_0.0.png,15,15,0,right,0.8491268157958984,None,0,15,15,15,21.76979684829712,,,,,,21.76364517211914,22.26792573928833,22.26792573928833,23.122408390045166,right,0.8491268157958984,None,,,,1,GA5,2025-08-20_15h39.14.305,mlcm_experiment_whites_illusion,,2025.1.1,59.96145818441744,2025-08-20 15h39.21.149565 +0200,
16,0.42,0.5,1.0,0.0,imgs/white_0.42_0.5_1.0_0.0.png,16,16,0,right,0.6490867137908936,None,0,16,16,16,23.13560962677002,,,,,,23.131280422210693,23.63656783103943,23.63656783103943,24.289116859436035,right,0.6490867137908936,None,,,,1,GA5,2025-08-20_15h39.14.305,mlcm_experiment_whites_illusion,,2025.1.1,59.96145818441744,2025-08-20 15h39.21.149565 +0200,
17,0.25,0.58,1.0,0.0,imgs/white_0.25_0.58_1.0_0.0.png,17,17,0,right,0.505094051361084,None,0,17,17,17,24.305501699447632,,,,,,24.299259662628174,24.804041385650635,24.804041385650635,25.323756217956543,right,0.505094051361084,None,,,,1,GA5,2025-08-20_15h39.14.305,mlcm_experiment_whites_illusion,,2025.1.1,59.96145818441744,2025-08-20 15h39.21.149565 +0200,
18,0.33,0.58,0.0,1.0,imgs/white_0.33_0.58_0.0_1.0.png,18,18,0,right,1.4947926998138428,None,0,18,18,18,25.339536666870117,,,,,,25.331926107406616,25.838181972503662,25.838181972503662,27.34237504005432,right,1.4947926998138428,None,,,,1,GA5,2025-08-20_15h39.14.305,mlcm_experiment_whites_illusion,,2025.1.1,59.96145818441744,2025-08-20 15h39.21.149565 +0200,
19,0.25,0.58,1.0,0.0,imgs/white_0.25_0.58_1.0_0.0.png,19,19,0,right,0.5403692722320557,None,0,19,19,19,27.35950207710266,,,,,,27.353889226913452,27.85664176940918,27.85664176940918,28.41029453277588,right,0.5403692722320557,None,,,,1,GA5,2025-08-20_15h39.14.305,mlcm_experiment_whites_illusion,,2025.1.1,59.96145818441744,2025-08-20 15h39.21.149565 +0200,
20,0.42,0.25,1.0,0.0,imgs/white_0.42_0.25_1.0_0.0.png,20,20,0,left,0.920689582824707,None,0,20,20,20,28.42562747001648,,,,,,28.418242931365967,28.924463033676147,28.924463033676147,29.8613440990448,left,0.920689582824707,None,,,,1,GA5,2025-08-20_15h39.14.305,mlcm_experiment_whites_illusion,,2025.1.1,59.96145818441744,2025-08-20 15h39.21.149565 +0200,
21,0.58,0.58,1.0,0.0,imgs/white_0.58_0.58_1.0_0.0.png,21,21,0,right,0.7176735401153564,None,0,21,21,21,29.874497890472412,,,,,,29.86867356300354,30.37533664703369,30.37533664703369,31.112278699874878,right,0.7176735401153564,None,,,,1,GA5,2025-08-20_15h39.14.305,mlcm_experiment_whites_illusion,,2025.1.1,59.96145818441744,2025-08-20 15h39.21.149565 +0200,
22,0.5,0.25,0.0,1.0,imgs/white_0.5_0.25_0.0_1.0.png,22,22,0,left,0.618366003036499,None,0,22,22,22,31.12582302093506,,,,,,31.119415760040283,31.62680673599243,31.62680673599243,32.263001680374146,left,0.618366003036499,None,,,,1,GA5,2025-08-20_15h39.14.305,mlcm_experiment_whites_illusion,,2025.1.1,59.96145818441744,2025-08-20 15h39.21.149565 +0200,
23,0.25,0.58,0.0,1.0,imgs/white_0.25_0.58_0.0_1.0.png,23,23,0,right,1.107839822769165,None,0,23,23,23,32.278599977493286,,,,,,32.272770404815674,32.777432918548584,32.777432918548584,33.897709131240845,right,1.107839822769165,None,,,,1,GA5,2025-08-20_15h39.14.305,mlcm_experiment_whites_illusion,,2025.1.1,59.96145818441744,2025-08-20 15h39.21.149565 +0200,
24,0.42,0.33,0.0,1.0,imgs/white_0.42_0.33_0.0_1.0.png,24,24,0,left,1.0017163753509521,None,0,24,24,24,33.91122078895569,,,,,,33.90485119819641,34.41236972808838,34.41236972808838,35.43223190307617,left,1.0017163753509521,None,,,,1,GA5,2025-08-20_15h39.14.305,mlcm_experiment_whites_illusion,,2025.1.1,59.96145818441744,2025-08-20 15h39.21.149565 +0200,
25,0.5,0.5,1.0,0.0,imgs/white_0.5_0.5_1.0_0.0.png,25,25,0,right,0.8831729888916016,None,0,25,25,25,35.44816255569458,,,,,,35.44274187088013,35.94676065444946,35.94676065444946,36.833279848098755,right,0.8831729888916016,None,,,,1,GA5,2025-08-20_15h39.14.305,mlcm_experiment_whites_illusion,,2025.1.1,59.96145818441744,2025-08-20 15h39.21.149565 +0200,
26,0.67,0.58,0.0,1.0,imgs/white_0.67_0.58_0.0_1.0.png,26,26,0,left,1.0329270362854004,None,0,26,26,26,36.847283124923706,,,,,,36.84070181846619,37.34825921058655,37.34825921058655,38.38533306121826,left,1.0329270362854004,None,,,,1,GA5,2025-08-20_15h39.14.305,mlcm_experiment_whites_illusion,,2025.1.1,59.96145818441744,2025-08-20 15h39.21.149565 +0200,
27,0.5,0.75,1.0,0.0,imgs/white_0.5_0.75_1.0_0.0.png,27,27,0,right,0.8101620674133301,None,0,27,27,27,38.40118932723999,,,,,,38.395689964294434,38.89915728569031,38.89915728569031,39.71928882598877,right,0.8101620674133301,None,,,,1,GA5,2025-08-20_15h39.14.305,mlcm_experiment_whites_illusion,,2025.1.1,59.96145818441744,2025-08-20 15h39.21.149565 +0200,
28,0.5,0.75,0.0,1.0,imgs/white_0.5_0.75_0.0_1.0.png,28,28,0,right,1.5722510814666748,None,0,28,28,28,39.73275113105774,,,,,,39.726502418518066,40.23308181762695,40.23308181762695,41.8209867477417,right,1.5722510814666748,None,,,,1,GA5,2025-08-20_15h39.14.305,mlcm_experiment_whites_illusion,,2025.1.1,59.96145818441744,2025-08-20 15h39.21.149565 +0200,
29,0.67,0.5,1.0,0.0,imgs/white_0.67_0.5_1.0_0.0.png,29,29,0,left,1.782688856124878,None,0,29,29,29,41.83853888511658,,,,,,41.833226919174194,42.33496594429016,42.33496594429016,44.122865200042725,left,1.782688856124878,None,,,,1,GA5,2025-08-20_15h39.14.305,mlcm_experiment_whites_illusion,,2025.1.1,59.96145818441744,2025-08-20 15h39.21.149565 +0200,
30,0.67,0.5,0.0,1.0,imgs/white_0.67_0.5_0.0_1.0.png,30,30,0,left,0.5839335918426514,None,0,30,30,30,44.136648416519165,,,,,,44.13197898864746,44.63746380805969,44.63746380805969,45.24048972129822,left,0.5839335918426514,None,,,,1,GA5,2025-08-20_15h39.14.305,mlcm_experiment_whites_illusion,,2025.1.1,59.96145818441744,2025-08-20 15h39.21.149565 +0200,
31,0.42,0.42,1.0,0.0,imgs/white_0.42_0.42_1.0_0.0.png,31,31,0,right,0.7146720886230469,None,0,31,31,31,45.25623607635498,,,,,,45.250311613082886,45.7549364566803,45.7549364566803,46.47438406944275,right,0.7146720886230469,None,,,,1,GA5,2025-08-20_15h39.14.305,mlcm_experiment_whites_illusion,,2025.1.1,59.96145818441744,2025-08-20 15h39.21.149565 +0200,
32,0.33,0.5,1.0,0.0,imgs/white_0.33_0.5_1.0_0.0.png,32,32,0,right,0.5198166370391846,None,0,32,32,32,46.490962743759155,,,,,,46.48264765739441,46.989540576934814,46.989540576934814,47.526211977005005,right,0.5198166370391846,None,,,,1,GA5,2025-08-20_15h39.14.305,mlcm_experiment_whites_illusion,,2025.1.1,59.96145818441744,2025-08-20 15h39.21.149565 +0200,
33,0.5,0.67,1.0,0.0,imgs/white_0.5_0.67_1.0_0.0.png,33,33,0,right,0.5493390560150146,None,0,33,33,33,47.54163360595703,,,,,,47.53317952156067,48.0404007434845,48.0404007434845,48.593719720840454,right,0.5493390560150146,None,,,,1,GA5,2025-08-20_15h39.14.305,mlcm_experiment_whites_illusion,,2025.1.1,59.96145818441744,2025-08-20 15h39.21.149565 +0200,
34,0.67,0.67,0.0,1.0,imgs/white_0.67_0.67_0.0_1.0.png,34,34,0,left,0.6975798606872559,None,0,34,34,34,48.60741424560547,,,,,,48.601508140563965,49.10802960395813,49.10802960395813,49.81128549575806,left,0.6975798606872559,None,,,,1,GA5,2025-08-20_15h39.14.305,mlcm_experiment_whites_illusion,,2025.1.1,59.96145818441744,2025-08-20 15h39.21.149565 +0200,
35,0.25,0.75,0.0,1.0,imgs/white_0.25_0.75_0.0_1.0.png,35,35,0,right,0.7121884822845459,None,0,35,35,35,49.82491970062256,,,,,,49.81852126121521,50.32549262046814,50.32549262046814,51.045292377471924,right,0.7121884822845459,None,,,,1,GA5,2025-08-20_15h39.14.305,mlcm_experiment_whites_illusion,,2025.1.1,59.96145818441744,2025-08-20 15h39.21.149565 +0200,
36,0.75,0.33,0.0,1.0,imgs/white_0.75_0.33_0.0_1.0.png,36,36,0,left,0.6777307987213135,None,0,36,36,36,51.05920362472534,,,,,,51.053274154663086,51.559911489486694,51.559911489486694,52.246683835983276,left,0.6777307987213135,None,,,,1,GA5,2025-08-20_15h39.14.305,mlcm_experiment_whites_illusion,,2025.1.1,59.96145818441744,2025-08-20 15h39.21.149565 +0200,
37,0.5,0.58,0.0,1.0,imgs/white_0.5_0.58_0.0_1.0.png,37,37,0,left,0.7725863456726074,None,0,37,37,37,52.26319098472595,,,,,,52.2580087184906,52.76097559928894,52.76097559928894,53.5481173992157,left,0.7725863456726074,None,,,,1,GA5,2025-08-20_15h39.14.305,mlcm_experiment_whites_illusion,,2025.1.1,59.96145818441744,2025-08-20 15h39.21.149565 +0200,
38,0.5,0.67,0.0,1.0,imgs/white_0.5_0.67_0.0_1.0.png,38,38,0,left,1.6548161506652832,None,0,38,38,38,53.56149625778198,,,,,,53.555726528167725,54.06217861175537,54.06217861175537,55.73232173919678,left,1.6548161506652832,None,,,,1,GA5,2025-08-20_15h39.14.305,mlcm_experiment_whites_illusion,,2025.1.1,59.96145818441744,2025-08-20 15h39.21.149565 +0200,
39,0.33,0.58,1.0,0.0,imgs/white_0.33_0.58_1.0_0.0.png,39,39,0,right,0.5346670150756836,None,0,39,39,39,55.74618864059448,,,,,,55.742698669433594,56.247334718704224,56.247334718704224,56.80080699920654,right,0.5346670150756836,None,,,,1,GA5,2025-08-20_15h39.14.305,mlcm_experiment_whites_illusion,,2025.1.1,59.96145818441744,2025-08-20 15h39.21.149565 +0200,
40,0.67,0.33,1.0,0.0,imgs/white_0.67_0.33_1.0_0.0.png,40,40,0,left,1.5227842330932617,None,0,40,40,40,56.81603670120239,,,,,,56.80719566345215,57.31473207473755,57.31473207473755,58.852367877960205,left,1.5227842330932617,None,,,,1,GA5,2025-08-20_15h39.14.305,mlcm_experiment_whites_illusion,,2025.1.1,59.96145818441744,2025-08-20 15h39.21.149565 +0200,
41,0.33,0.5,0.0,1.0,imgs/white_0.33_0.5_0.0_1.0.png,41,41,0,left,0.8310048580169678,None,0,41,41,41,58.87100052833557,,,,,,58.86476397514343,59.36669850349426,59.36669850349426,60.20279312133789,left,0.8310048580169678,None,,,,1,GA5,2025-08-20_15h39.14.305,mlcm_experiment_whites_illusion,,2025.1.1,59.96145818441744,2025-08-20 15h39.21.149565 +0200,
42,0.75,0.42,0.0,1.0,imgs/white_0.75_0.42_0.0_1.0.png,42,42,0,left,0.7519426345825195,None,0,42,42,42,60.21765947341919,,,,,,60.210190773010254,60.71788048744202,60.71788048744202,61.48844528198242,left,0.7519426345825195,None,,,,1,GA5,2025-08-20_15h39.14.305,mlcm_experiment_whites_illusion,,2025.1.1,59.96145818441744,2025-08-20 15h39.21.149565 +0200,
43,0.58,0.67,0.0,1.0,imgs/white_0.58_0.67_0.0_1.0.png,43,43,0,left,1.6353440284729004,None,0,43,43,43,61.50482892990112,,,,,,61.49955344200134,62.00236964225769,62.00236964225769,63.65647506713867,left,1.6353440284729004,None,,,,1,GA5,2025-08-20_15h39.14.305,mlcm_experiment_whites_illusion,,2025.1.1,59.96145818441744,2025-08-20 15h39.21.149565 +0200,
44,0.58,0.58,0.0,1.0,imgs/white_0.58_0.58_0.0_1.0.png,44,44,0,left,0.9708452224731445,None,0,44,44,44,63.67540979385376,,,,,,63.668137311935425,64.17076444625854,64.17076444625854,65.15732312202454,left,0.9708452224731445,None,,,,1,GA5,2025-08-20_15h39.14.305,mlcm_experiment_whites_illusion,,2025.1.1,59.96145818441744,2025-08-20 15h39.21.149565 +0200,
45,0.58,0.42,1.0,0.0,imgs/white_0.58_0.42_1.0_0.0.png,45,45,0,left,1.3667209148406982,None,0,45,45,45,65.17336130142212,,,,,,65.16548156738281,65.67202520370483,65.67202520370483,67.0422568321228,left,1.3667209148406982,None,,,,1,GA5,2025-08-20_15h39.14.305,mlcm_experiment_whites_illusion,,2025.1.1,59.96145818441744,2025-08-20 15h39.21.149565 +0200,
46,0.75,0.67,0.0,1.0,imgs/white_0.75_0.67_0.0_1.0.png,46,46,0,left,0.7205448150634766,None,0,46,46,46,67.0621874332428,,,,,,67.05498361587524,67.55677318572998,67.55677318572998,68.29379773139954,left,0.7205448150634766,None,,,,1,GA5,2025-08-20_15h39.14.305,mlcm_experiment_whites_illusion,,2025.1.1,59.96145818441744,2025-08-20 15h39.21.149565 +0200,
47,0.58,0.67,1.0,0.0,imgs/white_0.58_0.67_1.0_0.0.png,47,47,0,right,0.6302363872528076,None,0,47,47,47,68.30868196487427,,,,,,68.29843521118164,68.8076581954956,68.8076581954956,69.4445161819458,right,0.6302363872528076,None,,,,1,GA5,2025-08-20_15h39.14.305,mlcm_experiment_whites_illusion,,2025.1.1,59.96145818441744,2025-08-20 15h39.21.149565 +0200,
48,0.58,0.5,0.0,1.0,imgs/white_0.58_0.5_0.0_1.0.png,48,48,0,left,0.7830963134765625,None,0,48,48,48,69.45799136161804,,,,,,69.45065522193909,69.95908522605896,69.95908522605896,70.74568462371826,left,0.7830963134765625,None,,,,1,GA5,2025-08-20_15h39.14.305,mlcm_experiment_whites_illusion,,2025.1.1,59.96145818441744,2025-08-20 15h39.21.149565 +0200,
49,0.25,0.58,0.0,1.0,imgs/white_0.25_0.58_0.0_1.0.png,49,49,0,right,0.8179686069488525,None,0,49,49,49,70.75912833213806,,,,,,70.75341963768005,71.26013970375061,71.26013970375061,72.09703922271729,right,0.8179686069488525,None,,,,1,GA5,2025-08-20_15h39.14.305,mlcm_experiment_whites_illusion,,2025.1.1,59.96145818441744,2025-08-20 15h39.21.149565 +0200,
50,0.25,0.67,0.0,1.0,imgs/white_0.25_0.67_0.0_1.0.png,50,50,0,right,0.7388250827789307,None,0,50,50,50,72.1122305393219,,,,,,72.10642838478088,72.61113262176514,72.61113262176514,73.36472129821777,right,0.7388250827789307,None,,,,1,GA5,2025-08-20_15h39.14.305,mlcm_experiment_whites_illusion,,2025.1.1,59.96145818441744,2025-08-20 15h39.21.149565 +0200,
51,0.25,0.25,1.0,0.0,imgs/white_0.25_0.25_1.0_0.0.png,51,51,0,right,1.6631617546081543,None,0,51,51,51,73.38215041160583,,,,,,73.37661671638489,73.8788709640503,73.8788709640503,75.54914736747742,right,1.6631617546081543,None,,,,1,GA5,2025-08-20_15h39.14.305,mlcm_experiment_whites_illusion,,2025.1.1,59.96145818441744,2025-08-20 15h39.21.149565 +0200,
52,0.33,0.58,1.0,0.0,imgs/white_0.33_0.58_1.0_0.0.png,52,52,0,right,0.5979640483856201,None,0,52,52,52,75.56676864624023,,,,,,75.56108784675598,76.0640139579773,76.0640139579773,76.66733145713806,right,0.5979640483856201,None,,,,1,GA5,2025-08-20_15h39.14.305,mlcm_experiment_whites_illusion,,2025.1.1,59.96145818441744,2025-08-20 15h39.21.149565 +0200,
53,0.75,0.5,1.0,0.0,imgs/white_0.75_0.5_1.0_0.0.png,53,53,0,left,0.7923669815063477,None,0,53,53,53,76.68302011489868,,,,,,76.67415857315063,77.18156790733337,77.18156790733337,77.98518872261047,left,0.7923669815063477,None,,,,1,GA5,2025-08-20_15h39.14.305,mlcm_experiment_whites_illusion,,2025.1.1,59.96145818441744,2025-08-20 15h39.21.149565 +0200,
54,0.5,0.25,1.0,0.0,imgs/white_0.5_0.25_1.0_0.0.png,54,54,0,left,1.2662570476531982,None,0,54,54,54,77.9984815120697,,,,,,77.99221968650818,78.49928212165833,78.49928212165833,79.76719808578491,left,1.2662570476531982,None,,,,1,GA5,2025-08-20_15h39.14.305,mlcm_experiment_whites_illusion,,2025.1.1,59.96145818441744,2025-08-20 15h39.21.149565 +0200,
55,0.67,0.75,0.0,1.0,imgs/white_0.67_0.75_0.0_1.0.png,55,55,0,left,0.6905398368835449,None,0,55,55,55,79.78377223014832,,,,,,79.7716372013092,80.26763725280762,80.26763725280762,80.97152423858643,left,0.6905398368835449,None,,,,1,GA5,2025-08-20_15h39.14.305,mlcm_experiment_whites_illusion,,2025.1.1,59.96145818441744,2025-08-20 15h39.21.149565 +0200,
56,0.42,0.58,1.0,0.0,imgs/white_0.42_0.58_1.0_0.0.png,56,56,0,right,0.640998125076294,None,0,56,56,56,80.9863920211792,,,,,,80.97939419746399,81.4851861000061,81.4851861000061,82.13827919960022,right,0.640998125076294,None,,,,1,GA5,2025-08-20_15h39.14.305,mlcm_experiment_whites_illusion,,2025.1.1,59.96145818441744,2025-08-20 15h39.21.149565 +0200,
57,0.67,0.58,1.0,0.0,imgs/white_0.67_0.58_1.0_0.0.png,57,57,0,right,0.6661195755004883,None,0,57,57,57,82.15217971801758,,,,,,82.14542436599731,82.65286755561829,82.65286755561829,83.32278084754944,right,0.6661195755004883,None,,,,1,GA5,2025-08-20_15h39.14.305,mlcm_experiment_whites_illusion,,2025.1.1,59.96145818441744,2025-08-20 15h39.21.149565 +0200,
58,0.58,0.75,1.0,0.0,imgs/white_0.58_0.75_1.0_0.0.png,58,58,0,right,0.649360179901123,None,0,58,58,58,83.34267735481262,,,,,,83.33515048027039,83.83739519119263,83.83739519119263,84.49014925956726,right,0.649360179901123,None,,,,1,GA5,2025-08-20_15h39.14.305,mlcm_experiment_whites_illusion,,2025.1.1,59.96145818441744,2025-08-20 15h39.21.149565 +0200,
59,0.75,0.58,1.0,0.0,imgs/white_0.75_0.58_1.0_0.0.png,59,59,0,left,2.481196165084839,None,0,59,59,59,84.50408864021301,,,,,,84.49687433242798,85.00492405891418,85.00492405891418,87.49482870101929,left,2.481196165084839,None,,,,1,GA5,2025-08-20_15h39.14.305,mlcm_experiment_whites_illusion,,2025.1.1,59.96145818441744,2025-08-20 15h39.21.149565 +0200,
60,0.75,0.67,0.0,1.0,imgs/white_0.75_0.67_0.0_1.0.png,60,60,0,left,0.9834816455841064,None,0,60,60,60,87.50895404815674,,,,,,87.50367879867554,88.00717329978943,88.00717329978943,88.99392986297607,left,0.9834816455841064,None,,,,1,GA5,2025-08-20_15h39.14.305,mlcm_experiment_whites_illusion,,2025.1.1,59.96145818441744,2025-08-20 15h39.21.149565 +0200,
61,0.42,0.25,1.0,0.0,imgs/white_0.42_0.25_1.0_0.0.png,61,61,0,left,0.7534956932067871,None,0,61,61,61,89.01020646095276,,,,,,89.0020079612732,89.50864768028259,89.50864768028259,90.27909755706787,left,0.7534956932067871,None,,,,1,GA5,2025-08-20_15h39.14.305,mlcm_experiment_whites_illusion,,2025.1.1,59.96145818441744,2025-08-20 15h39.21.149565 +0200,
62,0.5,0.42,1.0,0.0,imgs/white_0.5_0.42_1.0_0.0.png,62,62,0,right,0.6933372020721436,None,0,62,62,62,90.29738926887512,,,,,,90.29071021080017,90.79297733306885,90.79297733306885,91.49612021446228,right,0.6933372020721436,None,,,,1,GA5,2025-08-20_15h39.14.305,mlcm_experiment_whites_illusion,,2025.1.1,59.96145818441744,2025-08-20 15h39.21.149565 +0200,
63,0.42,0.42,0.0,1.0,imgs/white_0.42_0.42_0.0_1.0.png,63,63,0,left,0.6117079257965088,None,0,63,63,63,91.50994300842285,,,,,,91.50254130363464,92.01055026054382,92.01055026054382,92.63058924674988,left,0.6117079257965088,None,,,,1,GA5,2025-08-20_15h39.14.305,mlcm_experiment_whites_illusion,,2025.1.1,59.96145818441744,2025-08-20 15h39.21.149565 +0200,
64,0.25,0.42,1.0,0.0,imgs/white_0.25_0.42_1.0_0.0.png,64,64,0,right,0.8692173957824707,None,0,64,64,64,92.64441347122192,,,,,,92.63873505592346,93.14498662948608,93.14498662948608,94.03181648254395,right,0.8692173957824707,None,,,,1,GA5,2025-08-20_15h39.14.305,mlcm_experiment_whites_illusion,,2025.1.1,59.96145818441744,2025-08-20 15h39.21.149565 +0200,
65,0.25,0.67,1.0,0.0,imgs/white_0.25_0.67_1.0_0.0.png,65,65,0,right,0.5949008464813232,None,0,65,65,65,94.04549193382263,,,,,,94.03919982910156,94.5475025177002,94.5475025177002,95.14917325973511,right,0.5949008464813232,None,,,,1,GA5,2025-08-20_15h39.14.305,mlcm_experiment_whites_illusion,,2025.1.1,59.96145818441744,2025-08-20 15h39.21.149565 +0200,
66,0.25,0.25,0.0,1.0,imgs/white_0.25_0.25_0.0_1.0.png,66,66,0,left,1.094458818435669,None,0,66,66,66,95.1627426147461,,,,,,95.15913534164429,95.66385126113892,95.66385126113892,96.76732015609741,left,1.094458818435669,None,,,,1,GA5,2025-08-20_15h39.14.305,mlcm_experiment_whites_illusion,,2025.1.1,59.96145818441744,2025-08-20 15h39.21.149565 +0200,
67,0.75,0.5,0.0,1.0,imgs/white_0.75_0.5_0.0_1.0.png,67,67,0,left,0.5726032257080078,None,0,67,67,67,96.78333258628845,,,,,,96.77770328521729,97.28173828125,97.28173828125,97.86854553222656,left,0.5726032257080078,None,,,,1,GA5,2025-08-20_15h39.14.305,mlcm_experiment_whites_illusion,,2025.1.1,59.96145818441744,2025-08-20 15h39.21.149565 +0200,
68,0.42,0.25,0.0,1.0,imgs/white_0.42_0.25_0.0_1.0.png,68,68,0,left,0.647648811340332,None,0,68,68,68,97.88796496391296,,,,,,97.88203072547913,98.3827953338623,98.3827953338623,99.03588271141052,left,0.647648811340332,None,,,,1,GA5,2025-08-20_15h39.14.305,mlcm_experiment_whites_illusion,,2025.1.1,59.96145818441744,2025-08-20 15h39.21.149565 +0200,
69,0.67,0.33,0.0,1.0,imgs/white_0.67_0.33_0.0_1.0.png,69,69,0,left,0.7916812896728516,None,0,69,69,69,99.04963207244873,,,,,,99.04528713226318,99.55074691772461,99.55074691772461,100.3541693687439,left,0.7916812896728516,None,,,,1,GA5,2025-08-20_15h39.14.305,mlcm_experiment_whites_illusion,,2025.1.1,59.96145818441744,2025-08-20 15h39.21.149565 +0200,
70,0.75,0.25,0.0,1.0,imgs/white_0.75_0.25_0.0_1.0.png,70,70,0,left,0.6500864028930664,None,0,70,70,70,100.37307620048523,,,,,,100.36733651161194,100.86847686767578,100.86847686767578,101.52180361747742,left,0.6500864028930664,None,,,,1,GA5,2025-08-20_15h39.14.305,mlcm_experiment_whites_illusion,,2025.1.1,59.96145818441744,2025-08-20 15h39.21.149565 +0200,
71,0.42,0.33,1.0,0.0,imgs/white_0.42_0.33_1.0_0.0.png,71,71,0,right,2.8416671752929688,None,0,71,71,71,101.53537440299988,,,,,,101.52976751327515,102.03703236579895,102.03703236579895,104.8911018371582,right,2.8416671752929688,None,,,,1,GA5,2025-08-20_15h39.14.305,mlcm_experiment_whites_illusion,,2025.1.1,59.96145818441744,2025-08-20 15h39.21.149565 +0200,
72,0.25,0.33,1.0,0.0,imgs/white_0.25_0.33_1.0_0.0.png,72,72,0,right,0.5849037170410156,None,0,72,72,72,104.9070177078247,,,,,,104.90146470069885,105.4054913520813,105.4054913520813,106.00864219665527,right,0.5849037170410156,None,,,,1,GA5,2025-08-20_15h39.14.305,mlcm_experiment_whites_illusion,,2025.1.1,59.96145818441744,2025-08-20 15h39.21.149565 +0200,
73,0.67,0.67,1.0,0.0,imgs/white_0.67_0.67_1.0_0.0.png,73,73,0,right,1.4838323593139648,None,0,73,73,73,106.02199363708496,,,,,,106.01606917381287,106.52298879623413,106.52298879623413,108.0103371143341,right,1.4838323593139648,None,,,,1,GA5,2025-08-20_15h39.14.305,mlcm_experiment_whites_illusion,,2025.1.1,59.96145818441744,2025-08-20 15h39.21.149565 +0200,
74,0.33,0.33,1.0,0.0,imgs/white_0.33_0.33_1.0_0.0.png,74,74,0,right,0.8897392749786377,None,0,74,74,74,108.02610349655151,,,,,,108.02058267593384,108.5249011516571,108.5249011516571,109.42858624458313,right,0.8897392749786377,None,,,,1,GA5,2025-08-20_15h39.14.305,mlcm_experiment_whites_illusion,,2025.1.1,59.96145818441744,2025-08-20 15h39.21.149565 +0200,
75,0.33,0.42,1.0,0.0,imgs/white_0.33_0.42_1.0_0.0.png,75,75,0,right,0.7842369079589844,None,0,75,75,75,109.44482564926147,,,,,,109.43957924842834,109.94241237640381,109.94241237640381,110.74684190750122,right,0.7842369079589844,None,,,,1,GA5,2025-08-20_15h39.14.305,mlcm_experiment_whites_illusion,,2025.1.1,59.96145818441744,2025-08-20 15h39.21.149565 +0200,
76,0.58,0.5,1.0,0.0,imgs/white_0.58_0.5_1.0_0.0.png,76,76,0,right,1.1620304584503174,None,0,76,76,76,110.76154208183289,,,,,,110.75377988815308,111.26066255569458,111.26066255569458,112.43008589744568,right,1.1620304584503174,None,,,,1,GA5,2025-08-20_15h39.14.305,mlcm_experiment_whites_illusion,,2025.1.1,59.96145818441744,2025-08-20 15h39.21.149565 +0200,
77,0.42,0.33,1.0,0.0,imgs/white_0.42_0.33_1.0_0.0.png,77,77,0,right,2.7256507873535156,None,0,77,77,77,112.44627046585083,,,,,,112.44097232818604,112.94509387016296,112.94509387016296,115.6831648349762,right,2.7256507873535156,None,,,,1,GA5,2025-08-20_15h39.14.305,mlcm_experiment_whites_illusion,,2025.1.1,59.96145818441744,2025-08-20 15h39.21.149565 +0200,
78,0.42,0.5,1.0,0.0,imgs/white_0.42_0.5_1.0_0.0.png,78,78,0,right,0.4889402389526367,None,0,78,78,78,115.69955587387085,,,,,,115.69425225257874,116.19774413108826,116.19774413108826,116.70044875144958,right,0.4889402389526367,None,,,,1,GA5,2025-08-20_15h39.14.305,mlcm_experiment_whites_illusion,,2025.1.1,59.96145818441744,2025-08-20 15h39.21.149565 +0200,
79,0.75,0.42,1.0,0.0,imgs/white_0.75_0.42_1.0_0.0.png,79,79,0,left,0.695458173751831,None,0,79,79,79,116.71673107147217,,,,,,116.7080705165863,117.2153537273407,117.2153537273407,117.91853070259094,left,0.695458173751831,None,,,,1,GA5,2025-08-20_15h39.14.305,mlcm_experiment_whites_illusion,,2025.1.1,59.96145818441744,2025-08-20 15h39.21.149565 +0200,
80,0.25,0.67,1.0,0.0,imgs/white_0.25_0.67_1.0_0.0.png,80,80,0,right,1.101430892944336,None,0,80,80,80,117.93438005447388,,,,,,117.92596673965454,118.43315505981445,118.43315505981445,119.55384564399719,right,1.101430892944336,None,,,,1,GA5,2025-08-20_15h39.14.305,mlcm_experiment_whites_illusion,,2025.1.1,59.96145818441744,2025-08-20 15h39.21.149565 +0200,
81,0.75,0.33,1.0,0.0,imgs/white_0.75_0.33_1.0_0.0.png,81,81,0,left,1.2999286651611328,None,0,81,81,81,119.56896805763245,,,,,,119.56366777420044,120.0677375793457,120.0677375793457,121.37074995040894,left,1.2999286651611328,None,,,,1,GA5,2025-08-20_15h39.14.305,mlcm_experiment_whites_illusion,,2025.1.1,59.96145818441744,2025-08-20 15h39.21.149565 +0200,
82,0.33,0.5,1.0,0.0,imgs/white_0.33_0.5_1.0_0.0.png,82,82,0,right,0.7207701206207275,None,0,82,82,82,121.38938283920288,,,,,,121.38356590270996,121.88589906692505,121.88589906692505,122.62287521362305,right,0.7207701206207275,None,,,,1,GA5,2025-08-20_15h39.14.305,mlcm_experiment_whites_illusion,,2025.1.1,59.96145818441744,2025-08-20 15h39.21.149565 +0200,
83,0.33,0.25,1.0,0.0,imgs/white_0.33_0.25_1.0_0.0.png,83,83,0,left,3.773716926574707,None,0,83,83,83,122.63832664489746,,,,,,122.63026189804077,123.13708782196045,123.13708782196045,126.92634630203247,left,3.773716926574707,None,,,,1,GA5,2025-08-20_15h39.14.305,mlcm_experiment_whites_illusion,,2025.1.1,59.96145818441744,2025-08-20 15h39.21.149565 +0200,
84,0.5,0.42,1.0,0.0,imgs/white_0.5_0.42_1.0_0.0.png,84,84,0,left,1.6946446895599365,None,0,84,84,84,126.94409894943237,,,,,,126.93838357925415,127.44038486480713,127.44038486480713,129.14517545700073,left,1.6946446895599365,None,,,,1,GA5,2025-08-20_15h39.14.305,mlcm_experiment_whites_illusion,,2025.1.1,59.96145818441744,2025-08-20 15h39.21.149565 +0200,
85,0.75,0.25,1.0,0.0,imgs/white_0.75_0.25_1.0_0.0.png,85,85,0,left,0.6201355457305908,None,0,85,85,85,129.16417956352234,,,,,,129.1584825515747,129.6591444015503,129.6591444015503,130.29562520980835,left,0.6201355457305908,None,,,,1,GA5,2025-08-20_15h39.14.305,mlcm_experiment_whites_illusion,,2025.1.1,59.96145818441744,2025-08-20 15h39.21.149565 +0200,
86,0.33,0.67,1.0,0.0,imgs/white_0.33_0.67_1.0_0.0.png,86,86,0,right,0.7004168033599854,None,0,86,86,86,130.31282567977905,,,,,,130.3075213432312,130.81054139137268,130.81054139137268,131.53003001213074,right,0.7004168033599854,None,,,,1,GA5,2025-08-20_15h39.14.305,mlcm_experiment_whites_illusion,,2025.1.1,59.96145818441744,2025-08-20 15h39.21.149565 +0200,
87,0.42,0.67,0.0,1.0,imgs/white_0.42_0.67_0.0_1.0.png,87,87,0,left,0.994478702545166,None,0,87,87,87,131.54336667060852,,,,,,131.53746700286865,132.04456567764282,132.04456567764282,133.04842901229858,left,0.994478702545166,None,,,,1,GA5,2025-08-20_15h39.14.305,mlcm_experiment_whites_illusion,,2025.1.1,59.96145818441744,2025-08-20 15h39.21.149565 +0200,
88,0.33,0.25,1.0,0.0,imgs/white_0.33_0.25_1.0_0.0.png,88,88,0,left,2.124570608139038,None,0,88,88,88,133.0637629032135,,,,,,133.0561978816986,133.56244778633118,133.56244778633118,135.70002341270447,left,2.124570608139038,None,,,,1,GA5,2025-08-20_15h39.14.305,mlcm_experiment_whites_illusion,,2025.1.1,59.96145818441744,2025-08-20 15h39.21.149565 +0200,
89,0.33,0.58,0.0,1.0,imgs/white_0.33_0.58_0.0_1.0.png,89,89,0,right,1.2802579402923584,None,0,89,89,89,135.71674132347107,,,,,,135.71149230003357,136.21487736701965,136.21487736701965,137.50137281417847,right,1.2802579402923584,None,,,,1,GA5,2025-08-20_15h39.14.305,mlcm_experiment_whites_illusion,,2025.1.1,59.96145818441744,2025-08-20 15h39.21.149565 +0200,
90,0.33,0.5,0.0,1.0,imgs/white_0.33_0.5_0.0_1.0.png,90,90,0,right,2.1908457279205322,None,0,90,90,90,137.51709842681885,,,,,,137.51188802719116,138.01630353927612,138.01630353927612,140.22122192382812,right,2.1908457279205322,None,,,,1,GA5,2025-08-20_15h39.14.305,mlcm_experiment_whites_illusion,,2025.1.1,59.96145818441744,2025-08-20 15h39.21.149565 +0200,
91,0.42,0.58,1.0,0.0,imgs/white_0.42_0.58_1.0_0.0.png,91,91,0,right,0.6401228904724121,None,0,91,91,91,140.23934483528137,,,,,,140.23312163352966,140.7351086139679,140.7351086139679,141.38851070404053,right,0.6401228904724121,None,,,,1,GA5,2025-08-20_15h39.14.305,mlcm_experiment_whites_illusion,,2025.1.1,59.96145818441744,2025-08-20 15h39.21.149565 +0200,
92,0.25,0.67,0.0,1.0,imgs/white_0.25_0.67_0.0_1.0.png,92,92,0,right,1.0244874954223633,None,0,92,92,92,141.40400791168213,,,,,,141.39577460289001,141.90268468856812,141.90268468856812,142.94236707687378,right,1.0244874954223633,None,,,,1,GA5,2025-08-20_15h39.14.305,mlcm_experiment_whites_illusion,,2025.1.1,59.96145818441744,2025-08-20 15h39.21.149565 +0200,
93,0.42,0.58,0.0,1.0,imgs/white_0.42_0.58_0.0_1.0.png,93,93,0,left,0.8731234073638916,None,0,93,93,93,142.95675683021545,,,,,,142.9489917755127,143.4541826248169,143.4541826248169,144.3412549495697,left,0.8731234073638916,None,,,,1,GA5,2025-08-20_15h39.14.305,mlcm_experiment_whites_illusion,,2025.1.1,59.96145818441744,2025-08-20 15h39.21.149565 +0200,
94,0.25,0.5,1.0,0.0,imgs/white_0.25_0.5_1.0_0.0.png,94,94,0,right,0.8237907886505127,None,0,94,94,94,144.36008977890015,,,,,,144.35337328910828,144.85554003715515,144.85554003715515,145.6924307346344,right,0.8237907886505127,None,,,,1,GA5,2025-08-20_15h39.14.305,mlcm_experiment_whites_illusion,,2025.1.1,59.96145818441744,2025-08-20 15h39.21.149565 +0200,
95,0.33,0.75,1.0,0.0,imgs/white_0.33_0.75_1.0_0.0.png,95,95,0,right,0.8166725635528564,None,0,95,95,95,145.70757699012756,,,,,,145.7003653049469,146.20658254623413,146.20658254623413,147.0266125202179,right,0.8166725635528564,None,,,,1,GA5,2025-08-20_15h39.14.305,mlcm_experiment_whites_illusion,,2025.1.1,59.96145818441744,2025-08-20 15h39.21.149565 +0200,
96,0.25,0.75,1.0,0.0,imgs/white_0.25_0.75_1.0_0.0.png,96,96,0,right,0.8743038177490234,None,0,96,96,96,147.0403332710266,,,,,,147.03461027145386,147.54102039337158,147.54102039337158,148.42791557312012,right,0.8743038177490234,None,,,,1,GA5,2025-08-20_15h39.14.305,mlcm_experiment_whites_illusion,,2025.1.1,59.96145818441744,2025-08-20 15h39.21.149565 +0200,
97,0.5,0.58,1.0,0.0,imgs/white_0.5_0.58_1.0_0.0.png,97,97,0,right,1.9612267017364502,None,0,97,97,97,148.44375038146973,,,,,,148.4383647441864,148.94217371940613,148.94217371940613,150.9132776260376,right,1.9612267017364502,None,,,,1,GA5,2025-08-20_15h39.14.305,mlcm_experiment_whites_illusion,,2025.1.1,59.96145818441744,2025-08-20 15h39.21.149565 +0200,
,,,,,,,,,,,,,,,,,,,,,,,,,,,,,150.98383808135986,150.98761081695557,152.92833995819092,1,GA5,2025-08-20_15h39.14.305,mlcm_experiment_whites_illusion,,2025.1.1,59.96145818441744,2025-08-20 15h39.21.149565 +0200,
