trial,s1,s2,s3,i1,i2,i3,thisN,thisTrialN,thisRepN,resp.keys,resp.rt,resp.duration,trials.thisRepN,trials.thisTrialN,trials.thisN,trials.thisIndex,thisRow.t,notes,instruct.started,ready.started,instrText.started,instruct.stopped,trial.started,resp.started,image1.started,image2.started,image3.started,trial.stopped,trials.resp.keys,trials.resp.rt,trials.resp.duration,thanks.started,thanksText.started,thanks.stopped,session,participant,date,expName,psychopyVersion,frameRate,expStart,
0,10,15,25,imgs/s_10_r_2.png,imgs/s_15_r_2.png,imgs/s_25_r_2.png,0,0,0,right,4.067123889923096,None,0,0,0,0,0.684086799621582,,,,,,0.6807425022125244,1.1678574085235596,1.1678574085235596,1.1678574085235596,1.1678574085235596,5.23757529258728,right,4.067123889923096,None,,,,2,GA,2025-08-08_17h58.26.981,mlds_experiment_numerosity_triads,2024.2.5,59.729201674688845,2025-08-08 17h58.32.153286 +0200,
1,60,25,10,imgs/s_60_r_2.png,imgs/s_25_r_2.png,imgs/s_10_r_2.png,1,1,0,left,1.170203685760498,None,0,1,1,1,5.254120349884033,,,,,,5.2505388259887695,5.752656698226929,5.752656698226929,5.752656698226929,5.752656698226929,6.9394402503967285,left,1.170203685760498,None,,,,2,GA,2025-08-08_17h58.26.981,mlds_experiment_numerosity_triads,2024.2.5,59.729201674688845,2025-08-08 17h58.32.153286 +0200,
2,50,20,15,imgs/s_50_r_2.png,imgs/s_20_r_2.png,imgs/s_15_r_2.png,2,2,0,right,1.2930364608764648,None,0,2,2,2,6.957188129425049,,,,,,6.953886032104492,7.4539878368377686,7.4539878368377686,7.4539878368377686,7.4539878368377686,8.758123636245728,right,1.2930364608764648,None,,,,2,GA,2025-08-08_17h58.26.981,mlds_experiment_numerosity_triads,2024.2.5,59.729201674688845,2025-08-08 17h58.32.153286 +0200,
3,30,40,50,imgs/s_30_r_2.png,imgs/s_40_r_2.png,imgs/s_50_r_2.png,3,3,0,right,2.3787782192230225,None,0,3,3,3,8.77487850189209,,,,,,8.771459341049194,9.272361516952515,9.272361516952515,9.272361516952515,9.272361516952515,11.660360336303711,right,2.3787782192230225,None,,,,2,GA,2025-08-08_17h58.26.981,mlds_experiment_numerosity_triads,2024.2.5,59.729201674688845,2025-08-08 17h58.32.153286 +0200,
4,50,30,25,imgs/s_50_r_2.png,imgs/s_30_r_2.png,imgs/s_25_r_2.png,4,4,0,right,1.0281963348388672,None,0,4,4,4,11.675116300582886,,,,,,11.671783447265625,12.174866437911987,12.174866437911987,12.174866437911987,12.174866437911987,13.21102499961853,right,1.0281963348388672,None,,,,2,GA,2025-08-08_17h58.26.981,mlds_experiment_numerosity_triads,2024.2.5,59.729201674688845,2025-08-08 17h58.32.153286 +0200,
5,40,25,10,imgs/s_40_r_2.png,imgs/s_25_r_2.png,imgs/s_10_r_2.png,5,5,0,left,0.9811487197875977,None,0,5,5,5,13.225757360458374,,,,,,13.222463607788086,13.726023197174072,13.726023197174072,13.726023197174072,13.726023197174072,14.71210241317749,left,0.9811487197875977,None,,,,2,GA,2025-08-08_17h58.26.981,mlds_experiment_numerosity_triads,2024.2.5,59.729201674688845,2025-08-08 17h58.32.153286 +0200,
6,5,10,50,imgs/s_5_r_2.png,imgs/s_10_r_2.png,imgs/s_50_r_2.png,6,6,0,left,1.30375075340271,None,0,6,6,6,14.733529567718506,,,,,,14.730182886123657,15.227347373962402,15.227347373962402,15.227347373962402,15.227347373962402,16.548030376434326,left,1.30375075340271,None,,,,2,GA,2025-08-08_17h58.26.981,mlds_experiment_numerosity_triads,2024.2.5,59.729201674688845,2025-08-08 17h58.32.153286 +0200,
7,15,10,5,imgs/s_15_r_2.png,imgs/s_10_r_2.png,imgs/s_5_r_2.png,7,7,0,right,1.0445122718811035,None,0,7,7,7,16.564279556274414,,,,,,16.561312675476074,17.062058687210083,17.062058687210083,17.062058687210083,17.062058687210083,18.113580465316772,right,1.0445122718811035,None,,,,2,GA,2025-08-08_17h58.26.981,mlds_experiment_numerosity_triads,2024.2.5,59.729201674688845,2025-08-08 17h58.32.153286 +0200,
8,60,30,25,imgs/s_60_r_2.png,imgs/s_30_r_2.png,imgs/s_25_r_2.png,8,8,0,right,1.0848398208618164,None,0,8,8,8,18.12956213951111,,,,,,18.121946334838867,18.61348819732666,18.61348819732666,18.61348819732666,18.61348819732666,19.715019464492798,right,1.0848398208618164,None,,,,2,GA,2025-08-08_17h58.26.981,mlds_experiment_numerosity_triads,2024.2.5,59.729201674688845,2025-08-08 17h58.32.153286 +0200,
9,20,30,60,imgs/s_20_r_2.png,imgs/s_30_r_2.png,imgs/s_60_r_2.png,9,9,0,left,1.3715415000915527,None,0,9,9,9,19.73082208633423,,,,,,19.721778631210327,20.214832305908203,20.214832305908203,20.214832305908203,20.214832305908203,21.608919382095337,left,1.3715415000915527,None,,,,2,GA,2025-08-08_17h58.26.981,mlds_experiment_numerosity_triads,2024.2.5,59.729201674688845,2025-08-08 17h58.32.153286 +0200,
10,10,15,60,imgs/s_10_r_2.png,imgs/s_15_r_2.png,imgs/s_60_r_2.png,10,10,0,left,1.0301308631896973,None,0,10,10,10,21.618079900741577,,,,,,21.615503311157227,22.116495847702026,22.116495847702026,22.116495847702026,22.116495847702026,23.15103030204773,left,1.0301308631896973,None,,,,2,GA,2025-08-08_17h58.26.981,mlds_experiment_numerosity_triads,2024.2.5,59.729201674688845,2025-08-08 17h58.32.153286 +0200,
11,60,50,30,imgs/s_60_r_2.png,imgs/s_50_r_2.png,imgs/s_30_r_2.png,11,11,0,left,1.9759211540222168,None,0,11,11,11,23.16691780090332,,,,,,23.15554118156433,23.65118956565857,23.65118956565857,23.65118956565857,23.65118956565857,25.638275623321533,left,1.9759211540222168,None,,,,2,GA,2025-08-08_17h58.26.981,mlds_experiment_numerosity_triads,2024.2.5,59.729201674688845,2025-08-08 17h58.32.153286 +0200,
12,50,25,10,imgs/s_50_r_2.png,imgs/s_25_r_2.png,imgs/s_10_r_2.png,12,12,0,left,1.1461091041564941,None,0,12,12,12,25.652880430221558,,,,,,25.64984154701233,26.153230905532837,26.153230905532837,26.153230905532837,26.153230905532837,27.306179523468018,left,1.1461091041564941,None,,,,2,GA,2025-08-08_17h58.26.981,mlds_experiment_numerosity_triads,2024.2.5,59.729201674688845,2025-08-08 17h58.32.153286 +0200,
13,50,25,5,imgs/s_50_r_2.png,imgs/s_25_r_2.png,imgs/s_5_r_2.png,13,13,0,left,1.1739673614501953,None,0,13,13,13,27.3206045627594,,,,,,27.316853761672974,27.82131576538086,27.82131576538086,27.82131576538086,27.82131576538086,29.0081889629364,left,1.1739673614501953,None,,,,2,GA,2025-08-08_17h58.26.981,mlds_experiment_numerosity_triads,2024.2.5,59.729201674688845,2025-08-08 17h58.32.153286 +0200,
14,15,25,60,imgs/s_15_r_2.png,imgs/s_25_r_2.png,imgs/s_60_r_2.png,14,14,0,left,1.6085951328277588,None,0,14,14,14,29.022388219833374,,,,,,29.019348859786987,29.522698640823364,29.522698640823364,29.522698640823364,29.522698640823364,31.142863750457764,left,1.6085951328277588,None,,,,2,GA,2025-08-08_17h58.26.981,mlds_experiment_numerosity_triads,2024.2.5,59.729201674688845,2025-08-08 17h58.32.153286 +0200,
15,25,40,50,imgs/s_25_r_2.png,imgs/s_40_r_2.png,imgs/s_50_r_2.png,15,15,0,right,2.3935279846191406,None,0,15,15,15,31.158142805099487,,,,,,31.15499711036682,31.657872438430786,31.657872438430786,31.657872438430786,31.657872438430786,34.06228852272034,right,2.3935279846191406,None,,,,2,GA,2025-08-08_17h58.26.981,mlds_experiment_numerosity_triads,2024.2.5,59.729201674688845,2025-08-08 17h58.32.153286 +0200,
16,5,10,30,imgs/s_5_r_2.png,imgs/s_10_r_2.png,imgs/s_30_r_2.png,16,16,0,left,4.2341578006744385,None,0,16,16,16,34.07707405090332,,,,,,34.07386016845703,34.57694172859192,34.57694172859192,34.57694172859192,34.57694172859192,38.81524467468262,left,4.2341578006744385,None,,,,2,GA,2025-08-08_17h58.26.981,mlds_experiment_numerosity_triads,2024.2.5,59.729201674688845,2025-08-08 17h58.32.153286 +0200,
17,60,40,25,imgs/s_60_r_2.png,imgs/s_40_r_2.png,imgs/s_25_r_2.png,17,17,0,left,1.6488234996795654,None,0,17,17,17,38.83039593696594,,,,,,38.82638072967529,39.330750703811646,39.330750703811646,39.330750703811646,39.330750703811646,40.98407316207886,left,1.6488234996795654,None,,,,2,GA,2025-08-08_17h58.26.981,mlds_experiment_numerosity_triads,2024.2.5,59.729201674688845,2025-08-08 17h58.32.153286 +0200,
18,5,10,40,imgs/s_5_r_2.png,imgs/s_10_r_2.png,imgs/s_40_r_2.png,18,18,0,left,1.2722439765930176,None,0,18,18,18,40.99894404411316,,,,,,40.99488186836243,41.499269008636475,41.499269008636475,41.499269008636475,41.499269008636475,42.78649187088013,left,1.2722439765930176,None,,,,2,GA,2025-08-08_17h58.26.981,mlds_experiment_numerosity_triads,2024.2.5,59.729201674688845,2025-08-08 17h58.32.153286 +0200,
19,20,25,30,imgs/s_20_r_2.png,imgs/s_25_r_2.png,imgs/s_30_r_2.png,19,19,0,right,5.398890733718872,None,0,19,19,19,42.80133295059204,,,,,,42.79794716835022,43.30099606513977,43.30099606513977,43.30099606513977,43.30099606513977,48.70798420906067,right,5.398890733718872,None,,,,2,GA,2025-08-08_17h58.26.981,mlds_experiment_numerosity_triads,2024.2.5,59.729201674688845,2025-08-08 17h58.32.153286 +0200,
20,10,30,50,imgs/s_10_r_2.png,imgs/s_30_r_2.png,imgs/s_50_r_2.png,20,20,0,right,2.3813769817352295,None,0,20,20,20,48.72267699241638,,,,,,48.719170570373535,49.222554206848145,49.222554206848145,49.222554206848145,49.222554206848145,51.609882831573486,right,2.3813769817352295,None,,,,2,GA,2025-08-08_17h58.26.981,mlds_experiment_numerosity_triads,2024.2.5,59.729201674688845,2025-08-08 17h58.32.153286 +0200,
21,5,15,50,imgs/s_5_r_2.png,imgs/s_15_r_2.png,imgs/s_50_r_2.png,21,21,0,left,2.934662103652954,None,0,21,21,21,51.6253662109375,,,,,,51.62247109413147,52.12496829032898,52.12496829032898,52.12496829032898,52.12496829032898,55.06341195106506,left,2.934662103652954,None,,,,2,GA,2025-08-08_17h58.26.981,mlds_experiment_numerosity_triads,2024.2.5,59.729201674688845,2025-08-08 17h58.32.153286 +0200,
22,15,30,60,imgs/s_15_r_2.png,imgs/s_30_r_2.png,imgs/s_60_r_2.png,22,22,0,left,2.017653465270996,None,0,22,22,22,55.077760219573975,,,,,,55.07460069656372,55.57795715332031,55.57795715332031,55.57795715332031,55.57795715332031,57.59758496284485,left,2.017653465270996,None,,,,2,GA,2025-08-08_17h58.26.981,mlds_experiment_numerosity_triads,2024.2.5,59.729201674688845,2025-08-08 17h58.32.153286 +0200,
23,25,20,15,imgs/s_25_r_2.png,imgs/s_20_r_2.png,imgs/s_15_r_2.png,23,23,0,right,1.7151412963867188,None,0,23,23,23,57.612985372543335,,,,,,57.60738182067871,58.11287021636963,58.11287021636963,58.11287021636963,58.11287021636963,59.83380937576294,right,1.7151412963867188,None,,,,2,GA,2025-08-08_17h58.26.981,mlds_experiment_numerosity_triads,2024.2.5,59.729201674688845,2025-08-08 17h58.32.153286 +0200,
24,15,30,40,imgs/s_15_r_2.png,imgs/s_30_r_2.png,imgs/s_40_r_2.png,24,24,0,right,1.6473784446716309,None,0,24,24,24,59.84780812263489,,,,,,59.84447741508484,60.34845328330994,60.34845328330994,60.34845328330994,60.34845328330994,62.00138306617737,right,1.6473784446716309,None,,,,2,GA,2025-08-08_17h58.26.981,mlds_experiment_numerosity_triads,2024.2.5,59.729201674688845,2025-08-08 17h58.32.153286 +0200,
25,5,25,40,imgs/s_5_r_2.png,imgs/s_25_r_2.png,imgs/s_40_r_2.png,25,25,0,right,2.1351397037506104,None,0,25,25,25,62.01662015914917,,,,,,62.011141777038574,62.51705574989319,62.51705574989319,62.51705574989319,62.51705574989319,64.67153024673462,right,2.1351397037506104,None,,,,2,GA,2025-08-08_17h58.26.981,mlds_experiment_numerosity_triads,2024.2.5,59.729201674688845,2025-08-08 17h58.32.153286 +0200,
26,50,40,5,imgs/s_50_r_2.png,imgs/s_40_r_2.png,imgs/s_5_r_2.png,26,26,0,left,2.322096109390259,None,0,26,26,26,64.68741774559021,,,,,,64.68405556678772,65.18601131439209,65.18601131439209,65.18601131439209,65.18601131439209,67.52398252487183,left,2.322096109390259,None,,,,2,GA,2025-08-08_17h58.26.981,mlds_experiment_numerosity_triads,2024.2.5,59.729201674688845,2025-08-08 17h58.32.153286 +0200,
27,25,50,60,imgs/s_25_r_2.png,imgs/s_50_r_2.png,imgs/s_60_r_2.png,27,27,0,right,1.5499389171600342,None,0,27,27,27,67.53941869735718,,,,,,67.53597116470337,68.0384464263916,68.0384464263916,68.0384464263916,68.0384464263916,69.59208178520203,right,1.5499389171600342,None,,,,2,GA,2025-08-08_17h58.26.981,mlds_experiment_numerosity_triads,2024.2.5,59.729201674688845,2025-08-08 17h58.32.153286 +0200,
28,5,10,20,imgs/s_5_r_2.png,imgs/s_10_r_2.png,imgs/s_20_r_2.png,28,28,0,left,2.19293212890625,None,0,28,28,28,69.60642433166504,,,,,,69.60308837890625,70.10689663887024,70.10689663887024,70.10689663887024,70.10689663887024,72.3109884262085,left,2.19293212890625,None,,,,2,GA,2025-08-08_17h58.26.981,mlds_experiment_numerosity_triads,2024.2.5,59.729201674688845,2025-08-08 17h58.32.153286 +0200,
29,5,25,30,imgs/s_5_r_2.png,imgs/s_25_r_2.png,imgs/s_30_r_2.png,29,29,0,right,0.905975341796875,None,0,29,29,29,72.3251428604126,,,,,,72.3221709728241,72.82580280303955,72.82580280303955,72.82580280303955,72.82580280303955,73.74613118171692,right,0.905975341796875,None,,,,2,GA,2025-08-08_17h58.26.981,mlds_experiment_numerosity_triads,2024.2.5,59.729201674688845,2025-08-08 17h58.32.153286 +0200,
30,15,25,40,imgs/s_15_r_2.png,imgs/s_25_r_2.png,imgs/s_40_r_2.png,30,30,0,right,1.9198579788208008,None,0,30,30,30,73.76060819625854,,,,,,73.75736856460571,74.26030325889587,74.26030325889587,74.26030325889587,74.26030325889587,76.19783759117126,right,1.9198579788208008,None,,,,2,GA,2025-08-08_17h58.26.981,mlds_experiment_numerosity_triads,2024.2.5,59.729201674688845,2025-08-08 17h58.32.153286 +0200,
31,30,15,5,imgs/s_30_r_2.png,imgs/s_15_r_2.png,imgs/s_5_r_2.png,31,31,0,right,2.235849618911743,None,0,31,31,31,76.21288084983826,,,,,,76.20993328094482,76.71240711212158,76.71240711212158,76.71240711212158,76.71240711212158,78.96691727638245,right,2.235849618911743,None,,,,2,GA,2025-08-08_17h58.26.981,mlds_experiment_numerosity_triads,2024.2.5,59.729201674688845,2025-08-08 17h58.32.153286 +0200,
32,40,30,10,imgs/s_40_r_2.png,imgs/s_30_r_2.png,imgs/s_10_r_2.png,32,32,0,left,2.22687029838562,None,0,32,32,32,78.98302721977234,,,,,,78.97958874702454,79.48139381408691,79.48139381408691,79.48139381408691,79.48139381408691,81.71895790100098,left,2.22687029838562,None,,,,2,GA,2025-08-08_17h58.26.981,mlds_experiment_numerosity_triads,2024.2.5,59.729201674688845,2025-08-08 17h58.32.153286 +0200,
33,60,30,10,imgs/s_60_r_2.png,imgs/s_30_r_2.png,imgs/s_10_r_2.png,33,33,0,right,1.1943964958190918,None,0,33,33,33,81.73336935043335,,,,,,81.7304801940918,82.23381900787354,82.23381900787354,82.23381900787354,82.23381900787354,83.43742823600769,right,1.1943964958190918,None,,,,2,GA,2025-08-08_17h58.26.981,mlds_experiment_numerosity_triads,2024.2.5,59.729201674688845,2025-08-08 17h58.32.153286 +0200,
34,60,15,5,imgs/s_60_r_2.png,imgs/s_15_r_2.png,imgs/s_5_r_2.png,34,34,0,right,1.268465518951416,None,0,34,34,34,83.4514377117157,,,,,,83.44843220710754,83.95184874534607,83.95184874534607,83.95184874534607,83.95184874534607,85.23837804794312,right,1.268465518951416,None,,,,2,GA,2025-08-08_17h58.26.981,mlds_experiment_numerosity_triads,2024.2.5,59.729201674688845,2025-08-08 17h58.32.153286 +0200,
35,5,25,60,imgs/s_5_r_2.png,imgs/s_25_r_2.png,imgs/s_60_r_2.png,35,35,0,left,1.499213695526123,None,0,35,35,35,85.25358867645264,,,,,,85.25032258033752,85.75331425666809,85.75331425666809,85.75331425666809,85.75331425666809,87.25766205787659,left,1.499213695526123,None,,,,2,GA,2025-08-08_17h58.26.981,mlds_experiment_numerosity_triads,2024.2.5,59.729201674688845,2025-08-08 17h58.32.153286 +0200,
36,40,30,5,imgs/s_40_r_2.png,imgs/s_30_r_2.png,imgs/s_5_r_2.png,36,36,0,left,3.4488935470581055,None,0,36,36,36,87.27384567260742,,,,,,87.27066087722778,87.77163600921631,87.77163600921631,87.77163600921631,87.77163600921631,91.22696661949158,left,3.4488935470581055,None,,,,2,GA,2025-08-08_17h58.26.981,mlds_experiment_numerosity_triads,2024.2.5,59.729201674688845,2025-08-08 17h58.32.153286 +0200,
37,50,30,20,imgs/s_50_r_2.png,imgs/s_30_r_2.png,imgs/s_20_r_2.png,37,37,0,right,2.4066107273101807,None,0,37,37,37,91.24190258979797,,,,,,91.23891377449036,91.74163556098938,91.74163556098938,91.74163556098938,91.74163556098938,94.1621105670929,right,2.4066107273101807,None,,,,2,GA,2025-08-08_17h58.26.981,mlds_experiment_numerosity_triads,2024.2.5,59.729201674688845,2025-08-08 17h58.32.153286 +0200,
38,60,50,10,imgs/s_60_r_2.png,imgs/s_50_r_2.png,imgs/s_10_r_2.png,38,38,0,left,1.2547385692596436,None,0,38,38,38,94.17834448814392,,,,,,94.17536973953247,94.67746663093567,94.67746663093567,94.67746663093567,94.67746663093567,95.94758892059326,left,1.2547385692596436,None,,,,2,GA,2025-08-08_17h58.26.981,mlds_experiment_numerosity_triads,2024.2.5,59.729201674688845,2025-08-08 17h58.32.153286 +0200,
39,15,50,60,imgs/s_15_r_2.png,imgs/s_50_r_2.png,imgs/s_60_r_2.png,39,39,0,right,1.198129653930664,None,0,39,39,39,95.96309876441956,,,,,,95.95978569984436,96.4623646736145,96.4623646736145,96.4623646736145,96.4623646736145,97.66518521308899,right,1.198129653930664,None,,,,2,GA,2025-08-08_17h58.26.981,mlds_experiment_numerosity_triads,2024.2.5,59.729201674688845,2025-08-08 17h58.32.153286 +0200,
40,60,20,15,imgs/s_60_r_2.png,imgs/s_20_r_2.png,imgs/s_15_r_2.png,40,40,0,right,1.0399014949798584,None,0,40,40,40,97.67999577522278,,,,,,97.67447710037231,98.18032789230347,98.18032789230347,98.18032789230347,98.18032789230347,99.23378682136536,right,1.0399014949798584,None,,,,2,GA,2025-08-08_17h58.26.981,mlds_experiment_numerosity_triads,2024.2.5,59.729201674688845,2025-08-08 17h58.32.153286 +0200,
41,10,20,50,imgs/s_10_r_2.png,imgs/s_20_r_2.png,imgs/s_50_r_2.png,41,41,0,left,0.9600365161895752,None,0,41,41,41,99.24772524833679,,,,,,99.24490857124329,99.74847364425659,99.74847364425659,99.74847364425659,99.74847364425659,100.71782565116882,left,0.9600365161895752,None,,,,2,GA,2025-08-08_17h58.26.981,mlds_experiment_numerosity_triads,2024.2.5,59.729201674688845,2025-08-08 17h58.32.153286 +0200,
42,50,25,15,imgs/s_50_r_2.png,imgs/s_25_r_2.png,imgs/s_15_r_2.png,42,42,0,right,1.547809362411499,None,0,42,42,42,100.73201704025269,,,,,,100.72897505760193,101.23289442062378,101.23289442062378,101.23289442062378,101.23289442062378,102.7859890460968,right,1.547809362411499,None,,,,2,GA,2025-08-08_17h58.26.981,mlds_experiment_numerosity_triads,2024.2.5,59.729201674688845,2025-08-08 17h58.32.153286 +0200,
43,5,20,50,imgs/s_5_r_2.png,imgs/s_20_r_2.png,imgs/s_50_r_2.png,43,43,0,right,5.207221269607544,None,0,43,43,43,102.80064845085144,,,,,,102.79661631584167,103.30132150650024,103.30132150650024,103.30132150650024,103.30132150650024,108.52490830421448,right,5.207221269607544,None,,,,2,GA,2025-08-08_17h58.26.981,mlds_experiment_numerosity_triads,2024.2.5,59.729201674688845,2025-08-08 17h58.32.153286 +0200,
44,20,25,40,imgs/s_20_r_2.png,imgs/s_25_r_2.png,imgs/s_40_r_2.png,44,44,0,right,8.764410972595215,None,0,44,44,44,108.53890752792358,,,,,,108.53544354438782,109.03960180282593,109.03960180282593,109.03960180282593,109.03960180282593,117.81466174125671,right,8.764410972595215,None,,,,2,GA,2025-08-08_17h58.26.981,mlds_experiment_numerosity_triads,2024.2.5,59.729201674688845,2025-08-08 17h58.32.153286 +0200,
45,5,15,20,imgs/s_5_r_2.png,imgs/s_15_r_2.png,imgs/s_20_r_2.png,45,45,0,right,3.4349632263183594,None,0,45,45,45,117.829758644104,,,,,,117.82024335861206,118.33065128326416,118.33065128326416,118.33065128326416,118.33065128326416,121.76852774620056,right,3.4349632263183594,None,,,,2,GA,2025-08-08_17h58.26.981,mlds_experiment_numerosity_triads,2024.2.5,59.729201674688845,2025-08-08 17h58.32.153286 +0200,
46,20,25,60,imgs/s_20_r_2.png,imgs/s_25_r_2.png,imgs/s_60_r_2.png,46,46,0,left,3.601864814758301,None,0,46,46,46,121.78578472137451,,,,,,121.78216481208801,122.28401017189026,122.28401017189026,122.28401017189026,122.28401017189026,125.88928413391113,left,3.601864814758301,None,,,,2,GA,2025-08-08_17h58.26.981,mlds_experiment_numerosity_triads,2024.2.5,59.729201674688845,2025-08-08 17h58.32.153286 +0200,
47,60,30,5,imgs/s_60_r_2.png,imgs/s_30_r_2.png,imgs/s_5_r_2.png,47,47,0,right,1.1929724216461182,None,0,47,47,47,125.90374422073364,,,,,,125.90007877349854,126.4039466381073,126.4039466381073,126.4039466381073,126.4039466381073,127.60783529281616,right,1.1929724216461182,None,,,,2,GA,2025-08-08_17h58.26.981,mlds_experiment_numerosity_triads,2024.2.5,59.729201674688845,2025-08-08 17h58.32.153286 +0200,
48,40,20,15,imgs/s_40_r_2.png,imgs/s_20_r_2.png,imgs/s_15_r_2.png,48,48,0,right,3.042661666870117,None,0,48,48,48,127.62154841423035,,,,,,127.61836910247803,128.12217020988464,128.12217020988464,128.12217020988464,128.12217020988464,131.17635345458984,right,3.042661666870117,None,,,,2,GA,2025-08-08_17h58.26.981,mlds_experiment_numerosity_triads,2024.2.5,59.729201674688845,2025-08-08 17h58.32.153286 +0200,
49,60,10,5,imgs/s_60_r_2.png,imgs/s_10_r_2.png,imgs/s_5_r_2.png,49,49,0,right,1.705111026763916,None,0,49,49,49,131.19137120246887,,,,,,131.18760418891907,131.6918432712555,131.6918432712555,131.6918432712555,131.6918432712555,133.41185569763184,right,1.705111026763916,None,,,,2,GA,2025-08-08_17h58.26.981,mlds_experiment_numerosity_triads,2024.2.5,59.729201674688845,2025-08-08 17h58.32.153286 +0200,
50,20,25,50,imgs/s_20_r_2.png,imgs/s_25_r_2.png,imgs/s_50_r_2.png,50,50,0,left,4.181894063949585,None,0,50,50,50,133.4272918701172,,,,,,133.42389750480652,133.9272141456604,133.9272141456604,133.9272141456604,133.9272141456604,138.11611890792847,left,4.181894063949585,None,,,,2,GA,2025-08-08_17h58.26.981,mlds_experiment_numerosity_triads,2024.2.5,59.729201674688845,2025-08-08 17h58.32.153286 +0200,
51,50,30,5,imgs/s_50_r_2.png,imgs/s_30_r_2.png,imgs/s_5_r_2.png,51,51,0,left,2.069995403289795,None,0,51,51,51,138.130863904953,,,,,,138.12764167785645,138.63113808631897,138.63113808631897,138.63113808631897,138.63113808631897,140.7183780670166,left,2.069995403289795,None,,,,2,GA,2025-08-08_17h58.26.981,mlds_experiment_numerosity_triads,2024.2.5,59.729201674688845,2025-08-08 17h58.32.153286 +0200,
52,60,40,15,imgs/s_60_r_2.png,imgs/s_40_r_2.png,imgs/s_15_r_2.png,52,52,0,right,1.7077124118804932,None,0,52,52,52,140.73292875289917,,,,,,140.72884368896484,141.23327255249023,141.23327255249023,141.23327255249023,141.23327255249023,142.95394468307495,right,1.7077124118804932,None,,,,2,GA,2025-08-08_17h58.26.981,mlds_experiment_numerosity_triads,2024.2.5,59.729201674688845,2025-08-08 17h58.32.153286 +0200,
53,10,20,40,imgs/s_10_r_2.png,imgs/s_20_r_2.png,imgs/s_40_r_2.png,53,53,0,left,2.0891075134277344,None,0,53,53,53,142.96825003623962,,,,,,142.9653401374817,143.468337059021,143.468337059021,143.468337059021,143.468337059021,145.5725588798523,left,2.0891075134277344,None,,,,2,GA,2025-08-08_17h58.26.981,mlds_experiment_numerosity_triads,2024.2.5,59.729201674688845,2025-08-08 17h58.32.153286 +0200,
54,50,40,15,imgs/s_50_r_2.png,imgs/s_40_r_2.png,imgs/s_15_r_2.png,54,54,0,left,1.4695823192596436,None,0,54,54,54,145.5865478515625,,,,,,145.58325171470642,146.0873634815216,146.0873634815216,146.0873634815216,146.0873634815216,147.5740978717804,left,1.4695823192596436,None,,,,2,GA,2025-08-08_17h58.26.981,mlds_experiment_numerosity_triads,2024.2.5,59.729201674688845,2025-08-08 17h58.32.153286 +0200,
55,30,20,15,imgs/s_30_r_2.png,imgs/s_20_r_2.png,imgs/s_15_r_2.png,55,55,0,right,7.660548210144043,None,0,55,55,55,147.58860230445862,,,,,,147.5856077671051,148.0885033607483,148.0885033607483,148.0885033607483,148.0885033607483,155.76485466957092,right,7.660548210144043,None,,,,2,GA,2025-08-08_17h58.26.981,mlds_experiment_numerosity_triads,2024.2.5,59.729201674688845,2025-08-08 17h58.32.153286 +0200,
56,20,40,50,imgs/s_20_r_2.png,imgs/s_40_r_2.png,imgs/s_50_r_2.png,56,56,0,left,6.614213943481445,None,0,56,56,56,155.78036665916443,,,,,,155.7769377231598,156.27921438217163,156.27921438217163,156.27921438217163,156.27921438217163,162.90409183502197,left,6.614213943481445,None,,,,2,GA,2025-08-08_17h58.26.981,mlds_experiment_numerosity_triads,2024.2.5,59.729201674688845,2025-08-08 17h58.32.153286 +0200,
57,5,10,25,imgs/s_5_r_2.png,imgs/s_10_r_2.png,imgs/s_25_r_2.png,57,57,0,left,3.2832186222076416,None,0,57,57,57,162.91814279556274,,,,,,162.91503477096558,163.41857624053955,163.41857624053955,163.41857624053955,163.41857624053955,166.70639085769653,left,3.2832186222076416,None,,,,2,GA,2025-08-08_17h58.26.981,mlds_experiment_numerosity_triads,2024.2.5,59.729201674688845,2025-08-08 17h58.32.153286 +0200,
58,60,40,20,imgs/s_60_r_2.png,imgs/s_40_r_2.png,imgs/s_20_r_2.png,58,58,0,left,1.4235734939575195,None,0,58,58,58,166.72141432762146,,,,,,166.71728229522705,167.221905708313,167.221905708313,167.221905708313,167.221905708313,168.65892672538757,left,1.4235734939575195,None,,,,2,GA,2025-08-08_17h58.26.981,mlds_experiment_numerosity_triads,2024.2.5,59.729201674688845,2025-08-08 17h58.32.153286 +0200,
59,60,50,5,imgs/s_60_r_2.png,imgs/s_50_r_2.png,imgs/s_5_r_2.png,59,59,0,left,1.0560743808746338,None,0,59,59,59,168.6741485595703,,,,,,168.67089581489563,169.17344117164612,169.17344117164612,169.17344117164612,169.17344117164612,170.24342584609985,left,1.0560743808746338,None,,,,2,GA,2025-08-08_17h58.26.981,mlds_experiment_numerosity_triads,2024.2.5,59.729201674688845,2025-08-08 17h58.32.153286 +0200,
60,20,30,40,imgs/s_20_r_2.png,imgs/s_30_r_2.png,imgs/s_40_r_2.png,60,60,0,left,3.59138822555542,None,0,60,60,60,170.25799751281738,,,,,,170.2551770210266,170.75820970535278,170.75820970535278,170.75820970535278,170.75820970535278,174.36405777931213,left,3.59138822555542,None,,,,2,GA,2025-08-08_17h58.26.981,mlds_experiment_numerosity_triads,2024.2.5,59.729201674688845,2025-08-08 17h58.32.153286 +0200,
61,40,15,5,imgs/s_40_r_2.png,imgs/s_15_r_2.png,imgs/s_5_r_2.png,61,61,0,right,1.7358825206756592,None,0,61,61,61,174.37798142433167,,,,,,174.3750159740448,174.87824726104736,174.87824726104736,174.87824726104736,174.87824726104736,176.63244152069092,right,1.7358825206756592,None,,,,2,GA,2025-08-08_17h58.26.981,mlds_experiment_numerosity_triads,2024.2.5,59.729201674688845,2025-08-08 17h58.32.153286 +0200,
62,40,20,5,imgs/s_40_r_2.png,imgs/s_20_r_2.png,imgs/s_5_r_2.png,62,62,0,left,2.795347213745117,None,0,62,62,62,176.64678263664246,,,,,,176.64350175857544,177.14670062065125,177.14670062065125,177.14670062065125,177.14670062065125,179.9509036540985,left,2.795347213745117,None,,,,2,GA,2025-08-08_17h58.26.981,mlds_experiment_numerosity_triads,2024.2.5,59.729201674688845,2025-08-08 17h58.32.153286 +0200,
63,10,15,20,imgs/s_10_r_2.png,imgs/s_15_r_2.png,imgs/s_20_r_2.png,63,63,0,right,1.8839435577392578,None,0,63,63,63,179.9657838344574,,,,,,179.96197056770325,180.46623539924622,180.46623539924622,180.46623539924622,180.46623539924622,182.35357880592346,right,1.8839435577392578,None,,,,2,GA,2025-08-08_17h58.26.981,mlds_experiment_numerosity_triads,2024.2.5,59.729201674688845,2025-08-08 17h58.32.153286 +0200,
64,5,20,25,imgs/s_5_r_2.png,imgs/s_20_r_2.png,imgs/s_25_r_2.png,64,64,0,right,1.417809009552002,None,0,64,64,64,182.3684799671173,,,,,,182.36487913131714,182.8681902885437,182.8681902885437,182.8681902885437,182.8681902885437,184.28915071487427,right,1.417809009552002,None,,,,2,GA,2025-08-08_17h58.26.981,mlds_experiment_numerosity_triads,2024.2.5,59.729201674688845,2025-08-08 17h58.32.153286 +0200,
65,50,40,10,imgs/s_50_r_2.png,imgs/s_40_r_2.png,imgs/s_10_r_2.png,65,65,0,left,1.9384973049163818,None,0,65,65,65,184.30442476272583,,,,,,184.30095028877258,184.80332493782043,184.80332493782043,184.80332493782043,184.80332493782043,186.75713658332825,left,1.9384973049163818,None,,,,2,GA,2025-08-08_17h58.26.981,mlds_experiment_numerosity_triads,2024.2.5,59.729201674688845,2025-08-08 17h58.32.153286 +0200,
66,50,15,10,imgs/s_50_r_2.png,imgs/s_15_r_2.png,imgs/s_10_r_2.png,66,66,0,right,2.837747812271118,None,0,66,66,66,186.77116560935974,,,,,,186.76825189590454,187.27192378044128,187.27192378044128,187.27192378044128,187.27192378044128,190.12732243537903,right,2.837747812271118,None,,,,2,GA,2025-08-08_17h58.26.981,mlds_experiment_numerosity_triads,2024.2.5,59.729201674688845,2025-08-08 17h58.32.153286 +0200,
67,5,20,30,imgs/s_5_r_2.png,imgs/s_20_r_2.png,imgs/s_30_r_2.png,67,67,0,right,2.5881900787353516,None,0,67,67,67,190.14204692840576,,,,,,190.13895463943481,190.64147400856018,190.64147400856018,190.64147400856018,190.64147400856018,193.24607276916504,right,2.5881900787353516,None,,,,2,GA,2025-08-08_17h58.26.981,mlds_experiment_numerosity_triads,2024.2.5,59.729201674688845,2025-08-08 17h58.32.153286 +0200,
68,10,25,30,imgs/s_10_r_2.png,imgs/s_25_r_2.png,imgs/s_30_r_2.png,68,68,0,right,0.9013371467590332,None,0,68,68,68,193.26017141342163,,,,,,193.25732398033142,193.76074385643005,193.76074385643005,193.76074385643005,193.76074385643005,194.6806297302246,right,0.9013371467590332,None,,,,2,GA,2025-08-08_17h58.26.981,mlds_experiment_numerosity_triads,2024.2.5,59.729201674688845,2025-08-08 17h58.32.153286 +0200,
69,60,40,30,imgs/s_60_r_2.png,imgs/s_40_r_2.png,imgs/s_30_r_2.png,69,69,0,left,2.3223671913146973,None,0,69,69,69,194.69516277313232,,,,,,194.6923794746399,195.1953945159912,195.1953945159912,195.1953945159912,195.1953945159912,197.53355479240417,left,2.3223671913146973,None,,,,2,GA,2025-08-08_17h58.26.981,mlds_experiment_numerosity_triads,2024.2.5,59.729201674688845,2025-08-08 17h58.32.153286 +0200,
70,60,40,10,imgs/s_60_r_2.png,imgs/s_40_r_2.png,imgs/s_10_r_2.png,70,70,0,left,0.9016568660736084,None,0,70,70,70,197.54808926582336,,,,,,197.54521536827087,198.04784226417542,198.04784226417542,198.04784226417542,198.04784226417542,198.96556115150452,left,0.9016568660736084,None,,,,2,GA,2025-08-08_17h58.26.981,mlds_experiment_numerosity_triads,2024.2.5,59.729201674688845,2025-08-08 17h58.32.153286 +0200,
71,10,15,30,imgs/s_10_r_2.png,imgs/s_15_r_2.png,imgs/s_30_r_2.png,71,71,0,left,2.2209689617156982,None,0,71,71,71,198.9813585281372,,,,,,198.97426557540894,199.46512293815613,199.46512293815613,199.46512293815613,199.46512293815613,201.702862739563,left,2.2209689617156982,None,,,,2,GA,2025-08-08_17h58.26.981,mlds_experiment_numerosity_triads,2024.2.5,59.729201674688845,2025-08-08 17h58.32.153286 +0200,
72,25,15,5,imgs/s_25_r_2.png,imgs/s_15_r_2.png,imgs/s_5_r_2.png,72,72,0,left,1.8283798694610596,None,0,72,72,72,201.7175121307373,,,,,,201.7135875225067,202.2178852558136,202.2178852558136,202.2178852558136,202.2178852558136,204.0551118850708,left,1.8283798694610596,None,,,,2,GA,2025-08-08_17h58.26.981,mlds_experiment_numerosity_triads,2024.2.5,59.729201674688845,2025-08-08 17h58.32.153286 +0200,
73,10,15,40,imgs/s_10_r_2.png,imgs/s_15_r_2.png,imgs/s_40_r_2.png,73,73,0,left,2.85221529006958,None,0,73,73,73,204.0694375038147,,,,,,204.06635236740112,204.57005381584167,204.57005381584167,204.57005381584167,204.57005381584167,207.44193077087402,left,2.85221529006958,None,,,,2,GA,2025-08-08_17h58.26.981,mlds_experiment_numerosity_triads,2024.2.5,59.729201674688845,2025-08-08 17h58.32.153286 +0200,
74,15,30,50,imgs/s_15_r_2.png,imgs/s_30_r_2.png,imgs/s_50_r_2.png,74,74,0,right,1.5702011585235596,None,0,74,74,74,207.45744705200195,,,,,,207.45424008369446,207.95607471466064,207.95607471466064,207.95607471466064,207.95607471466064,209.5436496734619,right,1.5702011585235596,None,,,,2,GA,2025-08-08_17h58.26.981,mlds_experiment_numerosity_triads,2024.2.5,59.729201674688845,2025-08-08 17h58.32.153286 +0200,
75,25,20,10,imgs/s_25_r_2.png,imgs/s_20_r_2.png,imgs/s_10_r_2.png,75,75,0,left,2.172145366668701,None,0,75,75,75,209.55862188339233,,,,,,209.55529975891113,210.0579605102539,210.0579605102539,210.0579605102539,210.0579605102539,212.24583077430725,left,2.172145366668701,None,,,,2,GA,2025-08-08_17h58.26.981,mlds_experiment_numerosity_triads,2024.2.5,59.729201674688845,2025-08-08 17h58.32.153286 +0200,
76,60,50,40,imgs/s_60_r_2.png,imgs/s_50_r_2.png,imgs/s_40_r_2.png,76,76,0,left,0.8863515853881836,None,0,76,76,76,212.26086926460266,,,,,,212.25802659988403,212.76004219055176,212.76004219055176,212.76004219055176,212.76004219055176,213.66340708732605,left,0.8863515853881836,None,,,,2,GA,2025-08-08_17h58.26.981,mlds_experiment_numerosity_triads,2024.2.5,59.729201674688845,2025-08-08 17h58.32.153286 +0200,
77,60,50,20,imgs/s_60_r_2.png,imgs/s_50_r_2.png,imgs/s_20_r_2.png,77,77,0,left,0.7483420372009277,None,0,77,77,77,213.67805910110474,,,,,,213.67501020431519,214.17805361747742,214.17805361747742,214.17805361747742,214.17805361747742,214.93160033226013,left,0.7483420372009277,None,,,,2,GA,2025-08-08_17h58.26.981,mlds_experiment_numerosity_triads,2024.2.5,59.729201674688845,2025-08-08 17h58.32.153286 +0200,
78,30,20,10,imgs/s_30_r_2.png,imgs/s_20_r_2.png,imgs/s_10_r_2.png,78,78,0,left,1.9526243209838867,None,0,78,78,78,214.94630551338196,,,,,,214.94307565689087,215.44563031196594,215.44563031196594,215.44563031196594,215.44563031196594,217.41591382026672,left,1.9526243209838867,None,,,,2,GA,2025-08-08_17h58.26.981,mlds_experiment_numerosity_triads,2024.2.5,59.729201674688845,2025-08-08 17h58.32.153286 +0200,
79,5,40,60,imgs/s_5_r_2.png,imgs/s_40_r_2.png,imgs/s_60_r_2.png,79,79,0,right,1.1634018421173096,None,0,79,79,79,217.43051195144653,,,,,,217.42686009407043,217.9311466217041,217.9311466217041,217.9311466217041,217.9311466217041,219.10076427459717,right,1.1634018421173096,None,,,,2,GA,2025-08-08_17h58.26.981,mlds_experiment_numerosity_triads,2024.2.5,59.729201674688845,2025-08-08 17h58.32.153286 +0200,
80,60,20,10,imgs/s_60_r_2.png,imgs/s_20_r_2.png,imgs/s_10_r_2.png,80,80,0,right,1.5106451511383057,None,0,80,80,80,219.11526250839233,,,,,,219.11160254478455,219.61585235595703,219.61585235595703,219.61585235595703,219.61585235595703,221.13599753379822,right,1.5106451511383057,None,,,,2,GA,2025-08-08_17h58.26.981,mlds_experiment_numerosity_triads,2024.2.5,59.729201674688845,2025-08-08 17h58.32.153286 +0200,
81,25,30,40,imgs/s_25_r_2.png,imgs/s_30_r_2.png,imgs/s_40_r_2.png,81,81,0,right,1.0519845485687256,None,0,81,81,81,221.15079426765442,,,,,,221.1478989124298,221.65086555480957,221.65086555480957,221.65086555480957,221.65086555480957,222.72082138061523,right,1.0519845485687256,None,,,,2,GA,2025-08-08_17h58.26.981,mlds_experiment_numerosity_triads,2024.2.5,59.729201674688845,2025-08-08 17h58.32.153286 +0200,
82,15,25,30,imgs/s_15_r_2.png,imgs/s_25_r_2.png,imgs/s_30_r_2.png,82,82,0,right,1.0995607376098633,None,0,82,82,82,222.73523473739624,,,,,,222.73081254959106,223.2355399131775,223.2355399131775,223.2355399131775,223.2355399131775,224.3386368751526,right,1.0995607376098633,None,,,,2,GA,2025-08-08_17h58.26.981,mlds_experiment_numerosity_triads,2024.2.5,59.729201674688845,2025-08-08 17h58.32.153286 +0200,
83,60,20,5,imgs/s_60_r_2.png,imgs/s_20_r_2.png,imgs/s_5_r_2.png,83,83,0,left,0.6810963153839111,None,0,83,83,83,224.35327625274658,,,,,,224.34874963760376,224.85355496406555,224.85355496406555,224.85355496406555,224.85355496406555,225.53961992263794,left,0.6810963153839111,None,,,,2,GA,2025-08-08_17h58.26.981,mlds_experiment_numerosity_triads,2024.2.5,59.729201674688845,2025-08-08 17h58.32.153286 +0200,
