trial,s1,s2,s3,i1,i2,i3,thisN,thisTrialN,thisRepN,resp.keys,resp.rt,resp.duration,trials.thisRepN,trials.thisTrialN,trials.thisN,trials.thisIndex,thisRow.t,notes,instruct.started,ready.started,instrText.started,instruct.stopped,trial.started,resp.started,image1.started,image2.started,image3.started,trial.stopped,trials.resp.keys,trials.resp.rt,trials.resp.duration,thanks.started,thanksText.started,thanks.stopped,session,participant,date,expName,psychopyVersion,frameRate,expStart,
,,,,,,,,,,,,,,,,,,,0.008209228515625,0.012241125106811523,0.012241125106811523,19.607905387878418,,,,,,,,,,,,,2,AH,2025-08-08_16h50.16.204,mlds_experiment_numerosity_triads,2024.2.5,59.92213829667167,2025-08-08 16h50.24.123343 +0200,
0,10,15,25,imgs/s_10_r_2.png,imgs/s_15_r_2.png,imgs/s_25_r_2.png,0,0,0,left,3.620436668395996,None,0,0,0,0,19.630045890808105,,,,,,19.62696599960327,20.122936487197876,20.122936487197876,20.122936487197876,20.122936487197876,23.761853218078613,left,3.620436668395996,None,,,,2,AH,2025-08-08_16h50.16.204,mlds_experiment_numerosity_triads,2024.2.5,59.92213829667167,2025-08-08 16h50.24.123343 +0200,
1,60,25,10,imgs/s_60_r_2.png,imgs/s_25_r_2.png,imgs/s_10_r_2.png,1,1,0,right,2.067213535308838,None,0,1,1,1,23.77703022956848,,,,,,23.77382254600525,24.276289701461792,24.276289701461792,24.276289701461792,24.276289701461792,26.34652042388916,right,2.067213535308838,None,,,,2,AH,2025-08-08_16h50.16.204,mlds_experiment_numerosity_triads,2024.2.5,59.92213829667167,2025-08-08 16h50.24.123343 +0200,
2,50,20,15,imgs/s_50_r_2.png,imgs/s_20_r_2.png,imgs/s_15_r_2.png,2,2,0,right,1.4500577449798584,None,0,2,2,2,26.36136531829834,,,,,,26.357147693634033,26.861698150634766,26.861698150634766,26.861698150634766,26.861698150634766,28.314639568328857,right,1.4500577449798584,None,,,,2,AH,2025-08-08_16h50.16.204,mlds_experiment_numerosity_triads,2024.2.5,59.92213829667167,2025-08-08 16h50.24.123343 +0200,
3,30,40,50,imgs/s_30_r_2.png,imgs/s_40_r_2.png,imgs/s_50_r_2.png,3,3,0,left,1.8334167003631592,None,0,3,3,3,28.32962965965271,,,,,,28.325563430786133,28.830118894577026,28.830118894577026,28.830118894577026,28.830118894577026,30.66688847541809,left,1.8334167003631592,None,,,,2,AH,2025-08-08_16h50.16.204,mlds_experiment_numerosity_triads,2024.2.5,59.92213829667167,2025-08-08 16h50.24.123343 +0200,
4,50,30,25,imgs/s_50_r_2.png,imgs/s_30_r_2.png,imgs/s_25_r_2.png,4,4,0,right,1.3283848762512207,None,0,4,4,4,30.681880950927734,,,,,,30.678550720214844,31.182018756866455,31.182018756866455,31.182018756866455,31.182018756866455,32.51773452758789,right,1.3283848762512207,None,,,,2,AH,2025-08-08_16h50.16.204,mlds_experiment_numerosity_triads,2024.2.5,59.92213829667167,2025-08-08 16h50.24.123343 +0200,
5,40,25,10,imgs/s_40_r_2.png,imgs/s_25_r_2.png,imgs/s_10_r_2.png,5,5,0,right,2.277339458465576,None,0,5,5,5,32.53314208984375,,,,,,32.52867531776428,33.033838748931885,33.033838748931885,33.033838748931885,33.033838748931885,35.320871114730835,right,2.277339458465576,None,,,,2,AH,2025-08-08_16h50.16.204,mlds_experiment_numerosity_triads,2024.2.5,59.92213829667167,2025-08-08 16h50.24.123343 +0200,
6,5,10,50,imgs/s_5_r_2.png,imgs/s_10_r_2.png,imgs/s_50_r_2.png,6,6,0,left,1.3553423881530762,None,0,6,6,6,35.33558011054993,,,,,,35.331528425216675,35.83567929267883,35.83567929267883,35.83567929267883,35.83567929267883,37.20616960525513,left,1.3553423881530762,None,,,,2,AH,2025-08-08_16h50.16.204,mlds_experiment_numerosity_triads,2024.2.5,59.92213829667167,2025-08-08 16h50.24.123343 +0200,
7,15,10,5,imgs/s_15_r_2.png,imgs/s_10_r_2.png,imgs/s_5_r_2.png,7,7,0,right,2.2379913330078125,None,0,7,7,7,37.22040152549744,,,,,,37.21676468849182,37.72109317779541,37.72109317779541,37.72109317779541,37.72109317779541,39.9754056930542,right,2.2379913330078125,None,,,,2,AH,2025-08-08_16h50.16.204,mlds_experiment_numerosity_triads,2024.2.5,59.92213829667167,2025-08-08 16h50.24.123343 +0200,
8,60,30,25,imgs/s_60_r_2.png,imgs/s_30_r_2.png,imgs/s_25_r_2.png,8,8,0,right,1.6294410228729248,None,0,8,8,8,39.990275621414185,,,,,,39.98739695549011,40.48978304862976,40.48978304862976,40.48978304862976,40.48978304862976,42.126726150512695,right,1.6294410228729248,None,,,,2,AH,2025-08-08_16h50.16.204,mlds_experiment_numerosity_triads,2024.2.5,59.92213829667167,2025-08-08 16h50.24.123343 +0200,
9,20,30,60,imgs/s_20_r_2.png,imgs/s_30_r_2.png,imgs/s_60_r_2.png,9,9,0,left,1.9017808437347412,None,0,9,9,9,42.14169526100159,,,,,,42.1385931968689,42.64140701293945,42.64140701293945,42.64140701293945,42.64140701293945,44.562268018722534,left,1.9017808437347412,None,,,,2,AH,2025-08-08_16h50.16.204,mlds_experiment_numerosity_triads,2024.2.5,59.92213829667167,2025-08-08 16h50.24.123343 +0200,
10,10,15,60,imgs/s_10_r_2.png,imgs/s_15_r_2.png,imgs/s_60_r_2.png,10,10,0,left,1.0103206634521484,None,0,10,10,10,44.57691669464111,,,,,,44.57357454299927,45.07697916030884,45.07697916030884,45.07697916030884,45.07697916030884,46.097188234329224,left,1.0103206634521484,None,,,,2,AH,2025-08-08_16h50.16.204,mlds_experiment_numerosity_triads,2024.2.5,59.92213829667167,2025-08-08 16h50.24.123343 +0200,
11,60,50,30,imgs/s_60_r_2.png,imgs/s_50_r_2.png,imgs/s_30_r_2.png,11,11,0,left,1.6914341449737549,None,0,11,11,11,46.11204195022583,,,,,,46.10904026031494,46.611658334732056,46.611658334732056,46.611658334732056,46.611658334732056,48.31491422653198,left,1.6914341449737549,None,,,,2,AH,2025-08-08_16h50.16.204,mlds_experiment_numerosity_triads,2024.2.5,59.92213829667167,2025-08-08 16h50.24.123343 +0200,
12,50,25,10,imgs/s_50_r_2.png,imgs/s_25_r_2.png,imgs/s_10_r_2.png,12,12,0,right,1.792781114578247,None,0,12,12,12,48.33792448043823,,,,,,48.33363461494446,48.830413579940796,48.830413579940796,48.830413579940796,48.830413579940796,50.634263038635254,right,1.792781114578247,None,,,,2,AH,2025-08-08_16h50.16.204,mlds_experiment_numerosity_triads,2024.2.5,59.92213829667167,2025-08-08 16h50.24.123343 +0200,
13,50,25,5,imgs/s_50_r_2.png,imgs/s_25_r_2.png,imgs/s_5_r_2.png,13,13,0,right,3.250286102294922,None,0,13,13,13,50.64872670173645,,,,,,50.64567255973816,51.14914846420288,51.14914846420288,51.14914846420288,51.14914846420288,54.40427303314209,right,3.250286102294922,None,,,,2,AH,2025-08-08_16h50.16.204,mlds_experiment_numerosity_triads,2024.2.5,59.92213829667167,2025-08-08 16h50.24.123343 +0200,
14,15,25,60,imgs/s_15_r_2.png,imgs/s_25_r_2.png,imgs/s_60_r_2.png,14,14,0,left,1.5845861434936523,None,0,14,14,14,54.419013261795044,,,,,,54.41556715965271,54.918787479400635,54.918787479400635,54.918787479400635,54.918787479400635,56.52228808403015,left,1.5845861434936523,None,,,,2,AH,2025-08-08_16h50.16.204,mlds_experiment_numerosity_triads,2024.2.5,59.92213829667167,2025-08-08 16h50.24.123343 +0200,
15,25,40,50,imgs/s_25_r_2.png,imgs/s_40_r_2.png,imgs/s_50_r_2.png,15,15,0,left,2.042093515396118,None,0,15,15,15,56.536614179611206,,,,,,56.53324365615845,57.03717088699341,57.03717088699341,57.03717088699341,57.03717088699341,59.09151291847229,left,2.042093515396118,None,,,,2,AH,2025-08-08_16h50.16.204,mlds_experiment_numerosity_triads,2024.2.5,59.92213829667167,2025-08-08 16h50.24.123343 +0200,
16,5,10,30,imgs/s_5_r_2.png,imgs/s_10_r_2.png,imgs/s_30_r_2.png,16,16,0,left,1.2251801490783691,None,0,16,16,16,59.10754585266113,,,,,,59.104079723358154,59.60602402687073,59.60602402687073,59.60602402687073,59.60602402687073,60.84246778488159,left,1.2251801490783691,None,,,,2,AH,2025-08-08_16h50.16.204,mlds_experiment_numerosity_triads,2024.2.5,59.92213829667167,2025-08-08 16h50.24.123343 +0200,
17,60,40,25,imgs/s_60_r_2.png,imgs/s_40_r_2.png,imgs/s_25_r_2.png,17,17,0,right,2.201632022857666,None,0,17,17,17,60.856971740722656,,,,,,60.852834939956665,61.357391595840454,61.357391595840454,61.357391595840454,61.357391595840454,63.57603192329407,right,2.201632022857666,None,,,,2,AH,2025-08-08_16h50.16.204,mlds_experiment_numerosity_triads,2024.2.5,59.92213829667167,2025-08-08 16h50.24.123343 +0200,
18,5,10,40,imgs/s_5_r_2.png,imgs/s_10_r_2.png,imgs/s_40_r_2.png,18,18,0,left,1.3465452194213867,None,0,18,18,18,63.59224557876587,,,,,,63.58069109916687,64.07626461982727,64.07626461982727,64.07626461982727,64.07626461982727,65.42782497406006,left,1.3465452194213867,None,,,,2,AH,2025-08-08_16h50.16.204,mlds_experiment_numerosity_triads,2024.2.5,59.92213829667167,2025-08-08 16h50.24.123343 +0200,
19,20,25,30,imgs/s_20_r_2.png,imgs/s_25_r_2.png,imgs/s_30_r_2.png,19,19,0,right,8.639986038208008,None,0,19,19,19,65.44383311271667,,,,,,65.43355417251587,65.92776989936829,65.92776989936829,65.92776989936829,65.92776989936829,74.57058119773865,right,8.639986038208008,None,,,,2,AH,2025-08-08_16h50.16.204,mlds_experiment_numerosity_triads,2024.2.5,59.92213829667167,2025-08-08 16h50.24.123343 +0200,
20,10,30,50,imgs/s_10_r_2.png,imgs/s_30_r_2.png,imgs/s_50_r_2.png,20,20,0,right,3.202223539352417,None,0,20,20,20,74.5852632522583,,,,,,74.58130025863647,75.08553171157837,75.08553171157837,75.08553171157837,75.08553171157837,78.29101014137268,right,3.202223539352417,None,,,,2,AH,2025-08-08_16h50.16.204,mlds_experiment_numerosity_triads,2024.2.5,59.92213829667167,2025-08-08 16h50.24.123343 +0200,
21,5,15,50,imgs/s_5_r_2.png,imgs/s_15_r_2.png,imgs/s_50_r_2.png,21,21,0,left,1.1221463680267334,None,0,21,21,21,78.30558061599731,,,,,,78.30239534378052,78.8053834438324,78.8053834438324,78.8053834438324,78.8053834438324,79.94198489189148,left,1.1221463680267334,None,,,,2,AH,2025-08-08_16h50.16.204,mlds_experiment_numerosity_triads,2024.2.5,59.92213829667167,2025-08-08 16h50.24.123343 +0200,
22,15,30,60,imgs/s_15_r_2.png,imgs/s_30_r_2.png,imgs/s_60_r_2.png,22,22,0,left,1.3428828716278076,None,0,22,22,22,79.95599269866943,,,,,,79.95297002792358,80.4569160938263,80.4569160938263,80.4569160938263,80.4569160938263,81.81065630912781,left,1.3428828716278076,None,,,,2,AH,2025-08-08_16h50.16.204,mlds_experiment_numerosity_triads,2024.2.5,59.92213829667167,2025-08-08 16h50.24.123343 +0200,
23,25,20,15,imgs/s_25_r_2.png,imgs/s_20_r_2.png,imgs/s_15_r_2.png,23,23,0,left,1.9868557453155518,None,0,23,23,23,81.82443165779114,,,,,,81.82093787193298,82.325115442276,82.325115442276,82.325115442276,82.325115442276,84.32908630371094,left,1.9868557453155518,None,,,,2,AH,2025-08-08_16h50.16.204,mlds_experiment_numerosity_triads,2024.2.5,59.92213829667167,2025-08-08 16h50.24.123343 +0200,
24,15,30,40,imgs/s_15_r_2.png,imgs/s_30_r_2.png,imgs/s_40_r_2.png,24,24,0,left,2.00392746925354,None,0,24,24,24,84.34297752380371,,,,,,84.33995389938354,84.84376883506775,84.84376883506775,84.84376883506775,84.84376883506775,86.86488509178162,left,2.00392746925354,None,,,,2,AH,2025-08-08_16h50.16.204,mlds_experiment_numerosity_triads,2024.2.5,59.92213829667167,2025-08-08 16h50.24.123343 +0200,
25,5,25,40,imgs/s_5_r_2.png,imgs/s_25_r_2.png,imgs/s_40_r_2.png,25,25,0,left,4.90872049331665,None,0,25,25,25,86.8808422088623,,,,,,86.87736296653748,87.37924551963806,87.37924551963806,87.37924551963806,87.37924551963806,92.30265283584595,left,4.90872049331665,None,,,,2,AH,2025-08-08_16h50.16.204,mlds_experiment_numerosity_triads,2024.2.5,59.92213829667167,2025-08-08 16h50.24.123343 +0200,
26,50,40,5,imgs/s_50_r_2.png,imgs/s_40_r_2.png,imgs/s_5_r_2.png,26,26,0,left,2.7184510231018066,None,0,26,26,26,92.31668066978455,,,,,,92.31371188163757,92.81709861755371,92.81709861755371,92.81709861755371,92.81709861755371,95.55263614654541,left,2.7184510231018066,None,,,,2,AH,2025-08-08_16h50.16.204,mlds_experiment_numerosity_triads,2024.2.5,59.92213829667167,2025-08-08 16h50.24.123343 +0200,
27,25,50,60,imgs/s_25_r_2.png,imgs/s_50_r_2.png,imgs/s_60_r_2.png,27,27,0,left,5.978634595870972,None,0,27,27,27,95.56898021697998,,,,,,95.55729007720947,96.05325055122375,96.05325055122375,96.05325055122375,96.05325055122375,102.04389142990112,left,5.978634595870972,None,,,,2,AH,2025-08-08_16h50.16.204,mlds_experiment_numerosity_triads,2024.2.5,59.92213829667167,2025-08-08 16h50.24.123343 +0200,
28,5,10,20,imgs/s_5_r_2.png,imgs/s_10_r_2.png,imgs/s_20_r_2.png,28,28,0,left,4.697809219360352,None,0,28,28,28,102.05848622322083,,,,,,102.05525851249695,102.55857467651367,102.55857467651367,102.55857467651367,102.55857467651367,107.26535296440125,left,4.697809219360352,None,,,,2,AH,2025-08-08_16h50.16.204,mlds_experiment_numerosity_triads,2024.2.5,59.92213829667167,2025-08-08 16h50.24.123343 +0200,
29,5,25,30,imgs/s_5_r_2.png,imgs/s_25_r_2.png,imgs/s_30_r_2.png,29,29,0,right,1.7486612796783447,None,0,29,29,29,107.28023195266724,,,,,,107.27693152427673,107.77977466583252,107.77977466583252,107.77977466583252,107.77977466583252,109.53358507156372,right,1.7486612796783447,None,,,,2,AH,2025-08-08_16h50.16.204,mlds_experiment_numerosity_triads,2024.2.5,59.92213829667167,2025-08-08 16h50.24.123343 +0200,
30,15,25,40,imgs/s_15_r_2.png,imgs/s_25_r_2.png,imgs/s_40_r_2.png,30,30,0,left,3.855999708175659,None,0,30,30,30,109.54855704307556,,,,,,109.54558205604553,110.04820513725281,110.04820513725281,110.04820513725281,110.04820513725281,113.92023634910583,left,3.855999708175659,None,,,,2,AH,2025-08-08_16h50.16.204,mlds_experiment_numerosity_triads,2024.2.5,59.92213829667167,2025-08-08 16h50.24.123343 +0200,
31,30,15,5,imgs/s_30_r_2.png,imgs/s_15_r_2.png,imgs/s_5_r_2.png,31,31,0,right,1.956711769104004,None,0,31,31,31,113.93496251106262,,,,,,113.9305808544159,114.43527722358704,114.43527722358704,114.43527722358704,114.43527722358704,116.40623569488525,right,1.956711769104004,None,,,,2,AH,2025-08-08_16h50.16.204,mlds_experiment_numerosity_triads,2024.2.5,59.92213829667167,2025-08-08 16h50.24.123343 +0200,
32,40,30,10,imgs/s_40_r_2.png,imgs/s_30_r_2.png,imgs/s_10_r_2.png,32,32,0,left,3.647409200668335,None,0,32,32,32,116.420734167099,,,,,,116.41769456863403,116.92101383209229,116.92101383209229,116.92101383209229,116.92101383209229,120.57575273513794,left,3.647409200668335,None,,,,2,AH,2025-08-08_16h50.16.204,mlds_experiment_numerosity_triads,2024.2.5,59.92213829667167,2025-08-08 16h50.24.123343 +0200,
33,60,30,10,imgs/s_60_r_2.png,imgs/s_30_r_2.png,imgs/s_10_r_2.png,33,33,0,right,2.734642505645752,None,0,33,33,33,120.59027481079102,,,,,,120.58722352981567,121.09077262878418,121.09077262878418,121.09077262878418,121.09077262878418,123.82865023612976,right,2.734642505645752,None,,,,2,AH,2025-08-08_16h50.16.204,mlds_experiment_numerosity_triads,2024.2.5,59.92213829667167,2025-08-08 16h50.24.123343 +0200,
34,60,15,5,imgs/s_60_r_2.png,imgs/s_15_r_2.png,imgs/s_5_r_2.png,34,34,0,right,1.1768858432769775,None,0,34,34,34,123.84663128852844,,,,,,123.84361791610718,124.34354400634766,124.34354400634766,124.34354400634766,124.34354400634766,125.53053021430969,right,1.1768858432769775,None,,,,2,AH,2025-08-08_16h50.16.204,mlds_experiment_numerosity_triads,2024.2.5,59.92213829667167,2025-08-08 16h50.24.123343 +0200,
35,5,25,60,imgs/s_5_r_2.png,imgs/s_25_r_2.png,imgs/s_60_r_2.png,35,35,0,left,3.043280839920044,None,0,35,35,35,125.5455071926117,,,,,,125.54218316078186,126.0451443195343,126.0451443195343,126.0451443195343,126.0451443195343,129.1000199317932,left,3.043280839920044,None,,,,2,AH,2025-08-08_16h50.16.204,mlds_experiment_numerosity_triads,2024.2.5,59.92213829667167,2025-08-08 16h50.24.123343 +0200,
36,40,30,5,imgs/s_40_r_2.png,imgs/s_30_r_2.png,imgs/s_5_r_2.png,36,36,0,right,4.633960485458374,None,0,36,36,36,129.1144983768463,,,,,,129.1113302707672,129.61466932296753,129.61466932296753,129.61466932296753,129.61466932296753,134.25366926193237,right,4.633960485458374,None,,,,2,AH,2025-08-08_16h50.16.204,mlds_experiment_numerosity_triads,2024.2.5,59.92213829667167,2025-08-08 16h50.24.123343 +0200,
37,50,30,20,imgs/s_50_r_2.png,imgs/s_30_r_2.png,imgs/s_20_r_2.png,37,37,0,right,2.3669228553771973,None,0,37,37,37,134.268479347229,,,,,,134.26479721069336,134.76908469200134,134.76908469200134,134.76908469200134,134.76908469200134,137.1377477645874,right,2.3669228553771973,None,,,,2,AH,2025-08-08_16h50.16.204,mlds_experiment_numerosity_triads,2024.2.5,59.92213829667167,2025-08-08 16h50.24.123343 +0200,
38,60,50,10,imgs/s_60_r_2.png,imgs/s_50_r_2.png,imgs/s_10_r_2.png,38,38,0,right,2.7632532119750977,None,0,38,38,38,137.15410494804382,,,,,,137.14540123939514,137.63745045661926,137.63745045661926,137.63745045661926,137.63745045661926,140.40912127494812,right,2.7632532119750977,None,,,,2,AH,2025-08-08_16h50.16.204,mlds_experiment_numerosity_triads,2024.2.5,59.92213829667167,2025-08-08 16h50.24.123343 +0200,
39,15,50,60,imgs/s_15_r_2.png,imgs/s_50_r_2.png,imgs/s_60_r_2.png,39,39,0,right,3.740229845046997,None,0,39,39,39,140.42421007156372,,,,,,140.42124605178833,140.92408323287964,140.92408323287964,140.92408323287964,140.92408323287964,144.67996048927307,right,3.740229845046997,None,,,,2,AH,2025-08-08_16h50.16.204,mlds_experiment_numerosity_triads,2024.2.5,59.92213829667167,2025-08-08 16h50.24.123343 +0200,
40,60,20,15,imgs/s_60_r_2.png,imgs/s_20_r_2.png,imgs/s_15_r_2.png,40,40,0,right,1.8220572471618652,None,0,40,40,40,144.69479966163635,,,,,,144.69190335273743,145.19429755210876,145.19429755210876,145.19429755210876,145.19429755210876,147.03157782554626,right,1.8220572471618652,None,,,,2,AH,2025-08-08_16h50.16.204,mlds_experiment_numerosity_triads,2024.2.5,59.92213829667167,2025-08-08 16h50.24.123343 +0200,
41,10,20,50,imgs/s_10_r_2.png,imgs/s_20_r_2.png,imgs/s_50_r_2.png,41,41,0,left,1.2942454814910889,None,0,41,41,41,147.04605889320374,,,,,,147.04308938980103,147.54645347595215,147.54645347595215,147.54645347595215,147.54645347595215,148.85039615631104,left,1.2942454814910889,None,,,,2,AH,2025-08-08_16h50.16.204,mlds_experiment_numerosity_triads,2024.2.5,59.92213829667167,2025-08-08 16h50.24.123343 +0200,
42,50,25,15,imgs/s_50_r_2.png,imgs/s_25_r_2.png,imgs/s_15_r_2.png,42,42,0,right,1.1881732940673828,None,0,42,42,42,148.86428904533386,,,,,,148.86096215248108,149.3644983768463,149.3644983768463,149.3644983768463,149.3644983768463,150.56779313087463,right,1.1881732940673828,None,,,,2,AH,2025-08-08_16h50.16.204,mlds_experiment_numerosity_triads,2024.2.5,59.92213829667167,2025-08-08 16h50.24.123343 +0200,
43,5,20,50,imgs/s_5_r_2.png,imgs/s_20_r_2.png,imgs/s_50_r_2.png,43,43,0,left,1.1978883743286133,None,0,43,43,43,150.5823996067047,,,,,,150.57797574996948,151.08264589309692,151.08264589309692,151.08264589309692,151.08264589309692,152.2849841117859,left,1.1978883743286133,None,,,,2,AH,2025-08-08_16h50.16.204,mlds_experiment_numerosity_triads,2024.2.5,59.92213829667167,2025-08-08 16h50.24.123343 +0200,
44,20,25,40,imgs/s_20_r_2.png,imgs/s_25_r_2.png,imgs/s_40_r_2.png,44,44,0,left,4.248075485229492,None,0,44,44,44,152.30028676986694,,,,,,152.29547095298767,152.80083990097046,152.80083990097046,152.80083990097046,152.80083990097046,157.05620527267456,left,4.248075485229492,None,,,,2,AH,2025-08-08_16h50.16.204,mlds_experiment_numerosity_triads,2024.2.5,59.92213829667167,2025-08-08 16h50.24.123343 +0200,
45,5,15,20,imgs/s_5_r_2.png,imgs/s_15_r_2.png,imgs/s_20_r_2.png,45,45,0,left,4.573193311691284,None,0,45,45,45,157.07061386108398,,,,,,157.06709694862366,157.57143449783325,157.57143449783325,157.57143449783325,157.57143449783325,162.16072630882263,left,4.573193311691284,None,,,,2,AH,2025-08-08_16h50.16.204,mlds_experiment_numerosity_triads,2024.2.5,59.92213829667167,2025-08-08 16h50.24.123343 +0200,
46,20,25,60,imgs/s_20_r_2.png,imgs/s_25_r_2.png,imgs/s_60_r_2.png,46,46,0,left,2.1089401245117188,None,0,46,46,46,162.17526197433472,,,,,,162.17167830467224,162.67571640014648,162.67571640014648,162.67571640014648,162.67571640014648,164.7968590259552,left,2.1089401245117188,None,,,,2,AH,2025-08-08_16h50.16.204,mlds_experiment_numerosity_triads,2024.2.5,59.92213829667167,2025-08-08 16h50.24.123343 +0200,
47,60,30,5,imgs/s_60_r_2.png,imgs/s_30_r_2.png,imgs/s_5_r_2.png,47,47,0,right,2.8171637058258057,None,0,47,47,47,164.81297278404236,,,,,,164.809241771698,165.31137824058533,165.31137824058533,165.31137824058533,165.31137824058533,168.13141560554504,right,2.8171637058258057,None,,,,2,AH,2025-08-08_16h50.16.204,mlds_experiment_numerosity_triads,2024.2.5,59.92213829667167,2025-08-08 16h50.24.123343 +0200,
48,40,20,15,imgs/s_40_r_2.png,imgs/s_20_r_2.png,imgs/s_15_r_2.png,48,48,0,right,1.9937362670898438,None,0,48,48,48,168.1466736793518,,,,,,168.14124417304993,168.64714646339417,168.64714646339417,168.64714646339417,168.64714646339417,170.6510453224182,right,1.9937362670898438,None,,,,2,AH,2025-08-08_16h50.16.204,mlds_experiment_numerosity_triads,2024.2.5,59.92213829667167,2025-08-08 16h50.24.123343 +0200,
49,60,10,5,imgs/s_60_r_2.png,imgs/s_10_r_2.png,imgs/s_5_r_2.png,49,49,0,right,1.3949902057647705,None,0,49,49,49,170.66532516479492,,,,,,170.66238260269165,171.16615271568298,171.16615271568298,171.16615271568298,171.16615271568298,172.5702588558197,right,1.3949902057647705,None,,,,2,AH,2025-08-08_16h50.16.204,mlds_experiment_numerosity_triads,2024.2.5,59.92213829667167,2025-08-08 16h50.24.123343 +0200,
50,20,25,50,imgs/s_20_r_2.png,imgs/s_25_r_2.png,imgs/s_50_r_2.png,50,50,0,left,1.9330112934112549,None,0,50,50,50,172.5854935646057,,,,,,172.58239436149597,173.08424186706543,173.08424186706543,173.08424186706543,173.08424186706543,175.02167582511902,left,1.9330112934112549,None,,,,2,AH,2025-08-08_16h50.16.204,mlds_experiment_numerosity_triads,2024.2.5,59.92213829667167,2025-08-08 16h50.24.123343 +0200,
51,50,30,5,imgs/s_50_r_2.png,imgs/s_30_r_2.png,imgs/s_5_r_2.png,51,51,0,right,2.1605517864227295,None,0,51,51,51,175.0360825061798,,,,,,175.032080411911,175.53643774986267,175.53643774986267,175.53643774986267,175.53643774986267,177.70680928230286,right,2.1605517864227295,None,,,,2,AH,2025-08-08_16h50.16.204,mlds_experiment_numerosity_triads,2024.2.5,59.92213829667167,2025-08-08 16h50.24.123343 +0200,
52,60,40,15,imgs/s_60_r_2.png,imgs/s_40_r_2.png,imgs/s_15_r_2.png,52,52,0,right,2.1870875358581543,None,0,52,52,52,177.72128653526306,,,,,,177.71761560440063,178.22195172309875,178.22195172309875,178.22195172309875,178.22195172309875,180.42615866661072,right,2.1870875358581543,None,,,,2,AH,2025-08-08_16h50.16.204,mlds_experiment_numerosity_triads,2024.2.5,59.92213829667167,2025-08-08 16h50.24.123343 +0200,
53,10,20,40,imgs/s_10_r_2.png,imgs/s_20_r_2.png,imgs/s_40_r_2.png,53,53,0,left,2.844050645828247,None,0,53,53,53,180.44059896469116,,,,,,180.43726253509521,180.94108319282532,180.94108319282532,180.94108319282532,180.94108319282532,183.79608941078186,left,2.844050645828247,None,,,,2,AH,2025-08-08_16h50.16.204,mlds_experiment_numerosity_triads,2024.2.5,59.92213829667167,2025-08-08 16h50.24.123343 +0200,
54,50,40,15,imgs/s_50_r_2.png,imgs/s_40_r_2.png,imgs/s_15_r_2.png,54,54,0,left,4.506615400314331,None,0,54,54,54,183.8113148212433,,,,,,183.80826210975647,184.31052494049072,184.31052494049072,184.31052494049072,184.31052494049072,188.8333580493927,left,4.506615400314331,None,,,,2,AH,2025-08-08_16h50.16.204,mlds_experiment_numerosity_triads,2024.2.5,59.92213829667167,2025-08-08 16h50.24.123343 +0200,
55,30,20,15,imgs/s_30_r_2.png,imgs/s_20_r_2.png,imgs/s_15_r_2.png,55,55,0,right,3.5731747150421143,None,0,55,55,55,188.84750771522522,,,,,,188.84428238868713,189.34806156158447,189.34806156158447,189.34806156158447,189.34806156158447,192.93691730499268,right,3.5731747150421143,None,,,,2,AH,2025-08-08_16h50.16.204,mlds_experiment_numerosity_triads,2024.2.5,59.92213829667167,2025-08-08 16h50.24.123343 +0200,
56,20,40,50,imgs/s_20_r_2.png,imgs/s_40_r_2.png,imgs/s_50_r_2.png,56,56,0,right,3.4218127727508545,None,0,56,56,56,192.95220041275024,,,,,,192.94898891448975,193.4515416622162,193.4515416622162,193.4515416622162,193.4515416622162,196.89098978042603,right,3.4218127727508545,None,,,,2,AH,2025-08-08_16h50.16.204,mlds_experiment_numerosity_triads,2024.2.5,59.92213829667167,2025-08-08 16h50.24.123343 +0200,
57,5,10,25,imgs/s_5_r_2.png,imgs/s_10_r_2.png,imgs/s_25_r_2.png,57,57,0,left,2.3007357120513916,None,0,57,57,57,196.90753960609436,,,,,,196.90458965301514,197.40485191345215,197.40485191345215,197.40485191345215,197.40485191345215,199.70933508872986,left,2.3007357120513916,None,,,,2,AH,2025-08-08_16h50.16.204,mlds_experiment_numerosity_triads,2024.2.5,59.92213829667167,2025-08-08 16h50.24.123343 +0200,
58,60,40,20,imgs/s_60_r_2.png,imgs/s_40_r_2.png,imgs/s_20_r_2.png,58,58,0,right,3.4338362216949463,None,0,58,58,58,199.72516012191772,,,,,,199.72164916992188,200.22362685203552,200.22362685203552,200.22362685203552,200.22362685203552,203.6627631187439,right,3.4338362216949463,None,,,,2,AH,2025-08-08_16h50.16.204,mlds_experiment_numerosity_triads,2024.2.5,59.92213829667167,2025-08-08 16h50.24.123343 +0200,
59,60,50,5,imgs/s_60_r_2.png,imgs/s_50_r_2.png,imgs/s_5_r_2.png,59,59,0,left,2.072237730026245,None,0,59,59,59,203.67724609375,,,,,,203.67425179481506,204.17711544036865,204.17711544036865,204.17711544036865,204.17711544036865,206.26462721824646,left,2.072237730026245,None,,,,2,AH,2025-08-08_16h50.16.204,mlds_experiment_numerosity_triads,2024.2.5,59.92213829667167,2025-08-08 16h50.24.123343 +0200,
60,20,30,40,imgs/s_20_r_2.png,imgs/s_30_r_2.png,imgs/s_40_r_2.png,60,60,0,left,3.198288679122925,None,0,60,60,60,206.27971959114075,,,,,,206.2767355442047,206.77925491333008,206.77925491333008,206.77925491333008,206.77925491333008,209.984384059906,left,3.198288679122925,None,,,,2,AH,2025-08-08_16h50.16.204,mlds_experiment_numerosity_triads,2024.2.5,59.92213829667167,2025-08-08 16h50.24.123343 +0200,
61,40,15,5,imgs/s_40_r_2.png,imgs/s_15_r_2.png,imgs/s_5_r_2.png,61,61,0,right,4.750629186630249,None,0,61,61,61,209.99848556518555,,,,,,209.9953727722168,210.49912881851196,210.49912881851196,210.49912881851196,210.49912881851196,215.2553162574768,right,4.750629186630249,None,,,,2,AH,2025-08-08_16h50.16.204,mlds_experiment_numerosity_triads,2024.2.5,59.92213829667167,2025-08-08 16h50.24.123343 +0200,
62,40,20,5,imgs/s_40_r_2.png,imgs/s_20_r_2.png,imgs/s_5_r_2.png,62,62,0,right,1.9753339290618896,None,0,62,62,62,215.271160364151,,,,,,215.26777720451355,215.77026057243347,215.77026057243347,215.77026057243347,215.77026057243347,217.75760412216187,right,1.9753339290618896,None,,,,2,AH,2025-08-08_16h50.16.204,mlds_experiment_numerosity_triads,2024.2.5,59.92213829667167,2025-08-08 16h50.24.123343 +0200,
63,10,15,20,imgs/s_10_r_2.png,imgs/s_15_r_2.png,imgs/s_20_r_2.png,63,63,0,left,2.6654880046844482,None,0,63,63,63,217.77183175086975,,,,,,217.76890397071838,218.27234482765198,218.27234482765198,218.27234482765198,218.27234482765198,220.94349336624146,left,2.6654880046844482,None,,,,2,AH,2025-08-08_16h50.16.204,mlds_experiment_numerosity_triads,2024.2.5,59.92213829667167,2025-08-08 16h50.24.123343 +0200,
64,5,20,25,imgs/s_5_r_2.png,imgs/s_20_r_2.png,imgs/s_25_r_2.png,64,64,0,right,3.303790807723999,None,0,64,64,64,220.95782160758972,,,,,,220.9543571472168,221.45827746391296,221.45827746391296,221.45827746391296,221.45827746391296,224.77980089187622,right,3.303790807723999,None,,,,2,AH,2025-08-08_16h50.16.204,mlds_experiment_numerosity_triads,2024.2.5,59.92213829667167,2025-08-08 16h50.24.123343 +0200,
65,50,40,10,imgs/s_50_r_2.png,imgs/s_40_r_2.png,imgs/s_10_r_2.png,65,65,0,left,1.5632092952728271,None,0,65,65,65,224.79446244239807,,,,,,224.79142928123474,225.29471802711487,225.29471802711487,225.29471802711487,225.29471802711487,226.86446404457092,left,1.5632092952728271,None,,,,2,AH,2025-08-08_16h50.16.204,mlds_experiment_numerosity_triads,2024.2.5,59.92213829667167,2025-08-08 16h50.24.123343 +0200,
66,50,15,10,imgs/s_50_r_2.png,imgs/s_15_r_2.png,imgs/s_10_r_2.png,66,66,0,right,1.5667591094970703,None,0,66,66,66,226.87950134277344,,,,,,226.87522673606873,227.37984991073608,227.37984991073608,227.37984991073608,227.37984991073608,228.9495885372162,right,1.5667591094970703,None,,,,2,AH,2025-08-08_16h50.16.204,mlds_experiment_numerosity_triads,2024.2.5,59.92213829667167,2025-08-08 16h50.24.123343 +0200,
67,5,20,30,imgs/s_5_r_2.png,imgs/s_20_r_2.png,imgs/s_30_r_2.png,67,67,0,left,5.640758752822876,None,0,67,67,67,228.9645073413849,,,,,,228.96056461334229,229.46507477760315,229.46507477760315,229.46507477760315,229.46507477760315,235.12179255485535,left,5.640758752822876,None,,,,2,AH,2025-08-08_16h50.16.204,mlds_experiment_numerosity_triads,2024.2.5,59.92213829667167,2025-08-08 16h50.24.123343 +0200,
68,10,25,30,imgs/s_10_r_2.png,imgs/s_25_r_2.png,imgs/s_30_r_2.png,68,68,0,right,3.6609652042388916,None,0,68,68,68,235.13684487342834,,,,,,235.13318276405334,235.6368715763092,235.6368715763092,235.6368715763092,235.6368715763092,239.3088140487671,right,3.6609652042388916,None,,,,2,AH,2025-08-08_16h50.16.204,mlds_experiment_numerosity_triads,2024.2.5,59.92213829667167,2025-08-08 16h50.24.123343 +0200,
69,60,40,30,imgs/s_60_r_2.png,imgs/s_40_r_2.png,imgs/s_30_r_2.png,69,69,0,right,1.714470386505127,None,0,69,69,69,239.32583832740784,,,,,,239.32252979278564,239.8236105442047,239.8236105442047,239.8236105442047,239.8236105442047,241.54412245750427,right,1.714470386505127,None,,,,2,AH,2025-08-08_16h50.16.204,mlds_experiment_numerosity_triads,2024.2.5,59.92213829667167,2025-08-08 16h50.24.123343 +0200,
70,60,40,10,imgs/s_60_r_2.png,imgs/s_40_r_2.png,imgs/s_10_r_2.png,70,70,0,left,2.4709243774414062,None,0,70,70,70,241.55844020843506,,,,,,241.55491280555725,242.05915641784668,242.05915641784668,242.05915641784668,242.05915641784668,244.5473599433899,left,2.4709243774414062,None,,,,2,AH,2025-08-08_16h50.16.204,mlds_experiment_numerosity_triads,2024.2.5,59.92213829667167,2025-08-08 16h50.24.123343 +0200,
71,10,15,30,imgs/s_10_r_2.png,imgs/s_15_r_2.png,imgs/s_30_r_2.png,71,71,0,left,2.085700511932373,None,0,71,71,71,244.5620527267456,,,,,,244.55892992019653,245.0605161190033,245.0605161190033,245.0605161190033,245.0605161190033,247.1656243801117,left,2.085700511932373,None,,,,2,AH,2025-08-08_16h50.16.204,mlds_experiment_numerosity_triads,2024.2.5,59.92213829667167,2025-08-08 16h50.24.123343 +0200,
72,25,15,5,imgs/s_25_r_2.png,imgs/s_15_r_2.png,imgs/s_5_r_2.png,72,72,0,right,3.321953296661377,None,0,72,72,72,247.1810281276703,,,,,,247.1776249408722,247.68032908439636,247.68032908439636,247.68032908439636,247.68032908439636,251.01689672470093,right,3.321953296661377,None,,,,2,AH,2025-08-08_16h50.16.204,mlds_experiment_numerosity_triads,2024.2.5,59.92213829667167,2025-08-08 16h50.24.123343 +0200,
73,10,15,40,imgs/s_10_r_2.png,imgs/s_15_r_2.png,imgs/s_40_r_2.png,73,73,0,left,1.3729853630065918,None,0,73,73,73,251.03306698799133,,,,,,251.02728247642517,251.5169599056244,251.5169599056244,251.5169599056244,251.5169599056244,252.9037766456604,left,1.3729853630065918,None,,,,2,AH,2025-08-08_16h50.16.204,mlds_experiment_numerosity_triads,2024.2.5,59.92213829667167,2025-08-08 16h50.24.123343 +0200,
74,15,30,50,imgs/s_15_r_2.png,imgs/s_30_r_2.png,imgs/s_50_r_2.png,74,74,0,left,2.079622268676758,None,0,74,74,74,252.91818737983704,,,,,,252.91512537002563,253.41851782798767,253.41851782798767,253.41851782798767,253.41851782798767,255.50627303123474,left,2.079622268676758,None,,,,2,AH,2025-08-08_16h50.16.204,mlds_experiment_numerosity_triads,2024.2.5,59.92213829667167,2025-08-08 16h50.24.123343 +0200,
75,25,20,10,imgs/s_25_r_2.png,imgs/s_20_r_2.png,imgs/s_10_r_2.png,75,75,0,right,3.7977585792541504,None,0,75,75,75,255.52044653892517,,,,,,255.51703643798828,256.0204346179962,256.0204346179962,256.0204346179962,256.0204346179962,259.8256850242615,right,3.7977585792541504,None,,,,2,AH,2025-08-08_16h50.16.204,mlds_experiment_numerosity_triads,2024.2.5,59.92213829667167,2025-08-08 16h50.24.123343 +0200,
76,60,50,40,imgs/s_60_r_2.png,imgs/s_50_r_2.png,imgs/s_40_r_2.png,76,76,0,left,3.2054736614227295,None,0,76,76,76,259.8422226905823,,,,,,259.8390226364136,260.34080505371094,260.34080505371094,260.34080505371094,260.34080505371094,263.56259202957153,left,3.2054736614227295,None,,,,2,AH,2025-08-08_16h50.16.204,mlds_experiment_numerosity_triads,2024.2.5,59.92213829667167,2025-08-08 16h50.24.123343 +0200,
77,60,50,20,imgs/s_60_r_2.png,imgs/s_50_r_2.png,imgs/s_20_r_2.png,77,77,0,left,2.532846212387085,None,0,77,77,77,263.5783052444458,,,,,,263.57515358924866,264.0775303840637,264.0775303840637,264.0775303840637,264.0775303840637,266.61516976356506,left,2.532846212387085,None,,,,2,AH,2025-08-08_16h50.16.204,mlds_experiment_numerosity_triads,2024.2.5,59.92213829667167,2025-08-08 16h50.24.123343 +0200,
78,30,20,10,imgs/s_30_r_2.png,imgs/s_20_r_2.png,imgs/s_10_r_2.png,78,78,0,right,3.32844877243042,None,0,78,78,78,266.62953519821167,,,,,,266.626234292984,267.12988686561584,267.12988686561584,267.12988686561584,267.12988686561584,270.46885228157043,right,3.32844877243042,None,,,,2,AH,2025-08-08_16h50.16.204,mlds_experiment_numerosity_triads,2024.2.5,59.92213829667167,2025-08-08 16h50.24.123343 +0200,
79,5,40,60,imgs/s_5_r_2.png,imgs/s_40_r_2.png,imgs/s_60_r_2.png,79,79,0,left,5.867524147033691,None,0,79,79,79,270.4830696582794,,,,,,270.48008012771606,270.9830574989319,270.9830574989319,270.9830574989319,270.9830574989319,276.85698890686035,left,5.867524147033691,None,,,,2,AH,2025-08-08_16h50.16.204,mlds_experiment_numerosity_triads,2024.2.5,59.92213829667167,2025-08-08 16h50.24.123343 +0200,
80,60,20,10,imgs/s_60_r_2.png,imgs/s_20_r_2.png,imgs/s_10_r_2.png,80,80,0,right,1.6553153991699219,None,0,80,80,80,276.8717248439789,,,,,,276.86848282814026,277.3713433742523,277.3713433742523,277.3713433742523,277.3713433742523,279.0425457954407,right,1.6553153991699219,None,,,,2,AH,2025-08-08_16h50.16.204,mlds_experiment_numerosity_triads,2024.2.5,59.92213829667167,2025-08-08 16h50.24.123343 +0200,
81,25,30,40,imgs/s_25_r_2.png,imgs/s_30_r_2.png,imgs/s_40_r_2.png,81,81,0,left,2.2374751567840576,None,0,81,81,81,279.057900428772,,,,,,279.0547602176666,279.5571026802063,279.5571026802063,279.5571026802063,279.5571026802063,281.81140542030334,left,2.2374751567840576,None,,,,2,AH,2025-08-08_16h50.16.204,mlds_experiment_numerosity_triads,2024.2.5,59.92213829667167,2025-08-08 16h50.24.123343 +0200,
82,15,25,30,imgs/s_15_r_2.png,imgs/s_25_r_2.png,imgs/s_30_r_2.png,82,82,0,right,3.756685256958008,None,0,82,82,82,281.82656359672546,,,,,,281.8234066963196,282.32582664489746,282.32582664489746,282.32582664489746,282.32582664489746,286.0984239578247,right,3.756685256958008,None,,,,2,AH,2025-08-08_16h50.16.204,mlds_experiment_numerosity_triads,2024.2.5,59.92213829667167,2025-08-08 16h50.24.123343 +0200,
83,60,20,5,imgs/s_60_r_2.png,imgs/s_20_r_2.png,imgs/s_5_r_2.png,83,83,0,right,2.7417821884155273,None,0,83,83,83,286.1138377189636,,,,,,286.1105284690857,286.6128830909729,286.6128830909729,286.6128830909729,286.6128830909729,289.3680245876312,right,2.7417821884155273,None,,,,2,AH,2025-08-08_16h50.16.204,mlds_experiment_numerosity_triads,2024.2.5,59.92213829667167,2025-08-08 16h50.24.123343 +0200,
,,,,,,,,,,,,,,,,,,,,,,,,,,,,,,,,289.44583773612976,289.44941663742065,291.38343238830566,2,AH,2025-08-08_16h50.16.204,mlds_experiment_numerosity_triads,2024.2.5,59.92213829667167,2025-08-08 16h50.24.123343 +0200,
