instruct.started,instruct.stopped,session,participant,date,expName,psychopyVersion,OS,frameRate,trial.started,trial.stopped,resp.keys,resp.rt,resp.duration,trials.thisRepN,trials.thisTrialN,trials.thisN,trials.thisIndex,trials.ran,trial,s1,s2,s3,im1,im2,im3,thanks.started,thanks.stopped
0.0002,116.9096,1,DM,2025-08-18_15h38.20.570,mlds_experiment_numerosity_triads,2025.1.1,MacIntel,60.60606061,,,,,,,,,,,,,,,,,,,
,,1,DM,2025-08-18_15h38.20.570,mlds_experiment_numerosity_triads,2025.1.1,MacIntel,60.60606061,116.9189,121.2261,left,3.7688,,0,0,0,0,1,0,60,40,30,s_60_r_5.png,s_40_r_8.png,s_30_r_8.png,,
,,1,DM,2025-08-18_15h38.20.570,mlds_experiment_numerosity_triads,2025.1.1,MacIntel,60.60606061,121.2277,125.309,left,3.5391,,0,1,1,1,1,1,20,40,60,s_20_r_9.png,s_40_r_7.png,s_60_r_2.png,,
,,1,DM,2025-08-18_15h38.20.570,mlds_experiment_numerosity_triads,2025.1.1,MacIntel,60.60606061,125.3101,127.8753,right,2.0232,,0,2,2,2,1,2,10,40,50,s_10_r_1.png,s_40_r_3.png,s_50_r_9.png,,
,,1,DM,2025-08-18_15h38.20.570,mlds_experiment_numerosity_triads,2025.1.1,MacIntel,60.60606061,127.8763,130.4251,right,2.0064,,0,3,3,3,1,3,25,50,60,s_25_r_2.png,s_50_r_4.png,s_60_r_10.png,,
,,1,DM,2025-08-18_15h38.20.570,mlds_experiment_numerosity_triads,2025.1.1,MacIntel,60.60606061,130.4262,137.0254,right,6.0571,,0,4,4,4,1,4,20,25,30,s_20_r_1.png,s_25_r_8.png,s_30_r_4.png,,
,,1,DM,2025-08-18_15h38.20.570,mlds_experiment_numerosity_triads,2025.1.1,MacIntel,60.60606061,137.0267,138.7252,right,1.159,,0,5,5,5,1,5,5,30,40,s_5_r_2.png,s_30_r_3.png,s_40_r_2.png,,
,,1,DM,2025-08-18_15h38.20.570,mlds_experiment_numerosity_triads,2025.1.1,MacIntel,60.60606061,138.7262,140.3919,right,1.1334,,0,6,6,6,1,6,15,25,30,s_15_r_1.png,s_25_r_5.png,s_30_r_2.png,,
,,1,DM,2025-08-18_15h38.20.570,mlds_experiment_numerosity_triads,2025.1.1,MacIntel,60.60606061,140.3929,143.7923,left,2.858,,0,7,7,7,1,7,5,10,30,s_5_r_4.png,s_10_r_9.png,s_30_r_6.png,,
,,1,DM,2025-08-18_15h38.20.570,mlds_experiment_numerosity_triads,2025.1.1,MacIntel,60.60606061,143.7933,147.1087,left,2.7848,,0,8,8,8,1,8,25,20,10,s_25_r_6.png,s_20_r_5.png,s_10_r_7.png,,
,,1,DM,2025-08-18_15h38.20.570,mlds_experiment_numerosity_triads,2025.1.1,MacIntel,60.60606061,147.1095,149.5752,left,1.9343,,0,9,9,9,1,9,5,10,60,s_5_r_2.png,s_10_r_7.png,s_60_r_8.png,,
,,1,DM,2025-08-18_15h38.20.570,mlds_experiment_numerosity_triads,2025.1.1,MacIntel,60.60606061,149.5762,152.5089,left,2.4007,,0,10,10,10,1,10,15,25,40,s_15_r_10.png,s_25_r_5.png,s_40_r_6.png,,
,,1,DM,2025-08-18_15h38.20.570,mlds_experiment_numerosity_triads,2025.1.1,MacIntel,60.60606061,152.5099,155.142,left,2.0953,,0,11,11,11,1,11,50,20,15,s_50_r_3.png,s_20_r_3.png,s_15_r_2.png,,
,,1,DM,2025-08-18_15h38.20.570,mlds_experiment_numerosity_triads,2025.1.1,MacIntel,60.60606061,155.143,156.9748,left,1.2952,,0,12,12,12,1,12,60,50,15,s_60_r_3.png,s_50_r_7.png,s_15_r_2.png,,
,,1,DM,2025-08-18_15h38.20.570,mlds_experiment_numerosity_triads,2025.1.1,MacIntel,60.60606061,156.9758,158.9924,right,1.4725,,0,13,13,13,1,13,40,20,10,s_40_r_1.png,s_20_r_8.png,s_10_r_4.png,,
,,1,DM,2025-08-18_15h38.20.570,mlds_experiment_numerosity_triads,2025.1.1,MacIntel,60.60606061,158.9935,161.5422,left,2.0177,,0,14,14,14,1,14,60,30,5,s_60_r_1.png,s_30_r_4.png,s_5_r_10.png,,
,,1,DM,2025-08-18_15h38.20.570,mlds_experiment_numerosity_triads,2025.1.1,MacIntel,60.60606061,161.5432,163.692,right,1.6105,,0,15,15,15,1,15,60,30,25,s_60_r_7.png,s_30_r_4.png,s_25_r_9.png,,
,,1,DM,2025-08-18_15h38.20.570,mlds_experiment_numerosity_triads,2025.1.1,MacIntel,60.60606061,163.693,165.8588,left,1.6267,,0,16,16,16,1,16,10,15,60,s_10_r_4.png,s_15_r_9.png,s_60_r_7.png,,
,,1,DM,2025-08-18_15h38.20.570,mlds_experiment_numerosity_triads,2025.1.1,MacIntel,60.60606061,165.8599,167.9253,right,1.5346,,0,17,17,17,1,17,5,20,30,s_5_r_6.png,s_20_r_3.png,s_30_r_10.png,,
,,1,DM,2025-08-18_15h38.20.570,mlds_experiment_numerosity_triads,2025.1.1,MacIntel,60.60606061,167.9263,170.142,left,1.6825,,0,18,18,18,1,18,5,10,40,s_5_r_1.png,s_10_r_7.png,s_40_r_2.png,,
,,1,DM,2025-08-18_15h38.20.570,mlds_experiment_numerosity_triads,2025.1.1,MacIntel,60.60606061,170.1429,172.2092,right,1.5345,,0,19,19,19,1,19,25,30,40,s_25_r_2.png,s_30_r_8.png,s_40_r_9.png,,
,,1,DM,2025-08-18_15h38.20.570,mlds_experiment_numerosity_triads,2025.1.1,MacIntel,60.60606061,172.2101,174.2252,right,1.4785,,0,20,20,20,1,20,10,50,60,s_10_r_2.png,s_50_r_1.png,s_60_r_8.png,,
,,1,DM,2025-08-18_15h38.20.570,mlds_experiment_numerosity_triads,2025.1.1,MacIntel,60.60606061,174.2262,177.6421,left,2.8726,,0,21,21,21,1,21,40,30,15,s_40_r_5.png,s_30_r_8.png,s_15_r_8.png,,
,,1,DM,2025-08-18_15h38.20.570,mlds_experiment_numerosity_triads,2025.1.1,MacIntel,60.60606061,177.6433,179.9921,right,1.8104,,0,22,22,22,1,22,15,40,60,s_15_r_3.png,s_40_r_4.png,s_60_r_7.png,,
,,1,DM,2025-08-18_15h38.20.570,mlds_experiment_numerosity_triads,2025.1.1,MacIntel,60.60606061,179.9945,182.209,right,1.6743,,0,23,23,23,1,23,15,25,60,s_15_r_3.png,s_25_r_7.png,s_60_r_4.png,,
,,1,DM,2025-08-18_15h38.20.570,mlds_experiment_numerosity_triads,2025.1.1,MacIntel,60.60606061,182.2101,184.342,left,1.5895,,0,24,24,24,1,24,60,40,10,s_60_r_3.png,s_40_r_1.png,s_10_r_3.png,,
,,1,DM,2025-08-18_15h38.20.570,mlds_experiment_numerosity_triads,2025.1.1,MacIntel,60.60606061,184.3433,186.7253,right,1.8504,,0,25,25,25,1,25,50,15,10,s_50_r_2.png,s_15_r_2.png,s_10_r_3.png,,
,,1,DM,2025-08-18_15h38.20.570,mlds_experiment_numerosity_triads,2025.1.1,MacIntel,60.60606061,186.7259,188.8919,left,1.6283,,0,26,26,26,1,26,40,25,5,s_40_r_3.png,s_25_r_7.png,s_5_r_3.png,,
,,1,DM,2025-08-18_15h38.20.570,mlds_experiment_numerosity_triads,2025.1.1,MacIntel,60.60606061,188.8928,190.5089,left,1.0726,,0,27,27,27,1,27,50,25,10,s_50_r_7.png,s_25_r_3.png,s_10_r_10.png,,
,,1,DM,2025-08-18_15h38.20.570,mlds_experiment_numerosity_triads,2025.1.1,MacIntel,60.60606061,190.5103,192.5256,right,1.4852,,0,28,28,28,1,28,30,20,10,s_30_r_7.png,s_20_r_1.png,s_10_r_10.png,,
,,1,DM,2025-08-18_15h38.20.570,mlds_experiment_numerosity_triads,2025.1.1,MacIntel,60.60606061,192.5265,196.6753,left,3.6058,,0,29,29,29,1,29,5,15,40,s_5_r_3.png,s_15_r_5.png,s_40_r_2.png,,
,,1,DM,2025-08-18_15h38.20.570,mlds_experiment_numerosity_triads,2025.1.1,MacIntel,60.60606061,196.6766,198.6089,left,1.401,,0,30,30,30,1,30,40,25,10,s_40_r_9.png,s_25_r_3.png,s_10_r_1.png,,
,,1,DM,2025-08-18_15h38.20.570,mlds_experiment_numerosity_triads,2025.1.1,MacIntel,60.60606061,198.6099,200.2253,left,1.0759,,0,31,31,31,1,31,5,15,60,s_5_r_5.png,s_15_r_4.png,s_60_r_6.png,,
,,1,DM,2025-08-18_15h38.20.570,mlds_experiment_numerosity_triads,2025.1.1,MacIntel,60.60606061,200.2261,204.0088,left,3.2554,,0,32,32,32,1,32,5,10,15,s_5_r_5.png,s_10_r_1.png,s_15_r_2.png,,
,,1,DM,2025-08-18_15h38.20.570,mlds_experiment_numerosity_triads,2025.1.1,MacIntel,60.60606061,204.0098,206.0253,left,1.4743,,0,33,33,33,1,33,10,25,30,s_10_r_5.png,s_25_r_8.png,s_30_r_6.png,,
,,1,DM,2025-08-18_15h38.20.570,mlds_experiment_numerosity_triads,2025.1.1,MacIntel,60.60606061,206.0264,207.9922,left,1.4234,,0,34,34,34,1,34,60,25,10,s_60_r_2.png,s_25_r_7.png,s_10_r_5.png,,
,,1,DM,2025-08-18_15h38.20.570,mlds_experiment_numerosity_triads,2025.1.1,MacIntel,60.60606061,207.9931,209.9923,left,1.4689,,0,35,35,35,1,35,40,30,20,s_40_r_4.png,s_30_r_2.png,s_20_r_9.png,,
,,1,DM,2025-08-18_15h38.20.570,mlds_experiment_numerosity_triads,2025.1.1,MacIntel,60.60606061,209.9933,212.7746,right,2.2494,,0,36,36,36,1,36,60,40,25,s_60_r_8.png,s_40_r_10.png,s_25_r_6.png,,
,,1,DM,2025-08-18_15h38.20.570,mlds_experiment_numerosity_triads,2025.1.1,MacIntel,60.60606061,212.7755,214.9921,right,1.6847,,0,37,37,37,1,37,5,15,20,s_5_r_3.png,s_15_r_1.png,s_20_r_7.png,,
,,1,DM,2025-08-18_15h38.20.570,mlds_experiment_numerosity_triads,2025.1.1,MacIntel,60.60606061,214.9931,216.4252,right,0.8938,,0,38,38,38,1,38,5,30,50,s_5_r_9.png,s_30_r_2.png,s_50_r_2.png,,
,,1,DM,2025-08-18_15h38.20.570,mlds_experiment_numerosity_triads,2025.1.1,MacIntel,60.60606061,216.4262,218.2091,left,1.2406,,0,39,39,39,1,39,5,10,50,s_5_r_10.png,s_10_r_8.png,s_50_r_10.png,,
,,1,DM,2025-08-18_15h38.20.570,mlds_experiment_numerosity_triads,2025.1.1,MacIntel,60.60606061,218.2102,221.3589,right,2.6146,,0,40,40,40,1,40,20,40,50,s_20_r_7.png,s_40_r_1.png,s_50_r_10.png,,
,,1,DM,2025-08-18_15h38.20.570,mlds_experiment_numerosity_triads,2025.1.1,MacIntel,60.60606061,221.3598,223.5913,left,1.6899,,0,41,41,41,1,41,50,40,5,s_50_r_2.png,s_40_r_3.png,s_5_r_5.png,,
,,1,DM,2025-08-18_15h38.20.570,mlds_experiment_numerosity_triads,2025.1.1,MacIntel,60.60606061,223.5922,225.2751,left,1.163,,0,42,42,42,1,42,10,20,50,s_10_r_5.png,s_20_r_4.png,s_50_r_7.png,,
,,1,DM,2025-08-18_15h38.20.570,mlds_experiment_numerosity_triads,2025.1.1,MacIntel,60.60606061,225.276,227.6253,left,1.8175,,0,43,43,43,1,43,50,30,10,s_50_r_10.png,s_30_r_8.png,s_10_r_7.png,,
,,1,DM,2025-08-18_15h38.20.570,mlds_experiment_numerosity_triads,2025.1.1,MacIntel,60.60606061,227.6263,229.5752,left,1.4072,,0,44,44,44,1,44,10,20,60,s_10_r_8.png,s_20_r_4.png,s_60_r_3.png,,
,,1,DM,2025-08-18_15h38.20.570,mlds_experiment_numerosity_triads,2025.1.1,MacIntel,60.60606061,229.576,232.7089,left,2.594,,0,45,45,45,1,45,10,30,60,s_10_r_4.png,s_30_r_5.png,s_60_r_7.png,,
,,1,DM,2025-08-18_15h38.20.570,mlds_experiment_numerosity_triads,2025.1.1,MacIntel,60.60606061,232.7099,235.492,left,2.2508,,0,46,46,46,1,46,60,50,20,s_60_r_3.png,s_50_r_6.png,s_20_r_3.png,,
,,1,DM,2025-08-18_15h38.20.570,mlds_experiment_numerosity_triads,2025.1.1,MacIntel,60.60606061,235.4929,237.5921,right,1.568,,0,47,47,47,1,47,50,25,20,s_50_r_10.png,s_25_r_7.png,s_20_r_6.png,,
,,1,DM,2025-08-18_15h38.20.570,mlds_experiment_numerosity_triads,2025.1.1,MacIntel,60.60606061,237.5931,239.475,left,1.3509,,0,48,48,48,1,48,50,20,5,s_50_r_10.png,s_20_r_2.png,s_5_r_7.png,,
,,1,DM,2025-08-18_15h38.20.570,mlds_experiment_numerosity_triads,2025.1.1,MacIntel,60.60606061,239.4757,242.9588,right,2.9513,,0,49,49,49,1,49,15,20,25,s_15_r_6.png,s_20_r_1.png,s_25_r_7.png,,
,,1,DM,2025-08-18_15h38.20.570,mlds_experiment_numerosity_triads,2025.1.1,MacIntel,60.60606061,242.96,244.675,right,1.1832,,0,50,50,50,1,50,30,15,10,s_30_r_1.png,s_15_r_8.png,s_10_r_10.png,,
,,1,DM,2025-08-18_15h38.20.570,mlds_experiment_numerosity_triads,2025.1.1,MacIntel,60.60606061,244.6757,246.1089,right,0.8932,,0,51,51,51,1,51,25,20,5,s_25_r_7.png,s_20_r_1.png,s_5_r_1.png,,
,,1,DM,2025-08-18_15h38.20.570,mlds_experiment_numerosity_triads,2025.1.1,MacIntel,60.60606061,246.1098,247.5922,right,0.9562,,0,52,52,52,1,52,50,30,15,s_50_r_3.png,s_30_r_10.png,s_15_r_4.png,,
,,1,DM,2025-08-18_15h38.20.570,mlds_experiment_numerosity_triads,2025.1.1,MacIntel,60.60606061,247.5931,251.5921,right,3.4681,,0,53,53,53,1,53,60,30,20,s_60_r_2.png,s_30_r_8.png,s_20_r_9.png,,
,,1,DM,2025-08-18_15h38.20.570,mlds_experiment_numerosity_triads,2025.1.1,MacIntel,60.60606061,251.5932,253.8922,right,1.7686,,0,54,54,54,1,54,5,15,25,s_5_r_8.png,s_15_r_8.png,s_25_r_3.png,,
,,1,DM,2025-08-18_15h38.20.570,mlds_experiment_numerosity_triads,2025.1.1,MacIntel,60.60606061,253.8931,255.7088,right,1.2916,,0,55,55,55,1,55,30,50,60,s_30_r_6.png,s_50_r_10.png,s_60_r_6.png,,
,,1,DM,2025-08-18_15h38.20.570,mlds_experiment_numerosity_triads,2025.1.1,MacIntel,60.60606061,255.7097,257.3922,left,1.1402,,0,56,56,56,1,56,5,15,50,s_5_r_3.png,s_15_r_7.png,s_50_r_4.png,,
,,1,DM,2025-08-18_15h38.20.570,mlds_experiment_numerosity_triads,2025.1.1,MacIntel,60.60606061,257.3935,261.159,left,3.2236,,0,57,57,57,1,57,10,15,40,s_10_r_7.png,s_15_r_10.png,s_40_r_2.png,,
,,1,DM,2025-08-18_15h38.20.570,mlds_experiment_numerosity_triads,2025.1.1,MacIntel,60.60606061,261.1603,263.5255,left,1.838,,0,58,58,58,1,58,40,20,15,s_40_r_2.png,s_20_r_5.png,s_15_r_8.png,,
,,1,DM,2025-08-18_15h38.20.570,mlds_experiment_numerosity_triads,2025.1.1,MacIntel,60.60606061,263.5264,266.6919,left,2.6232,,0,59,59,59,1,59,15,30,60,s_15_r_1.png,s_30_r_6.png,s_60_r_1.png,,
,,1,DM,2025-08-18_15h38.20.570,mlds_experiment_numerosity_triads,2025.1.1,MacIntel,60.60606061,266.693,272.1754,right,4.942,,0,60,60,60,1,60,5,25,50,s_5_r_10.png,s_25_r_1.png,s_50_r_10.png,,
,,1,DM,2025-08-18_15h38.20.570,mlds_experiment_numerosity_triads,2025.1.1,MacIntel,60.60606061,272.1765,278.1419,left,5.4233,,0,61,61,61,1,61,50,40,15,s_50_r_8.png,s_40_r_3.png,s_15_r_8.png,,
,,1,DM,2025-08-18_15h38.20.570,mlds_experiment_numerosity_triads,2025.1.1,MacIntel,60.60606061,278.1428,285.0589,left,6.3743,,0,62,62,62,1,62,15,20,60,s_15_r_7.png,s_20_r_9.png,s_60_r_4.png,,
,,1,DM,2025-08-18_15h38.20.570,mlds_experiment_numerosity_triads,2025.1.1,MacIntel,60.60606061,285.0602,287.8754,left,2.2733,,0,63,63,63,1,63,40,25,20,s_40_r_8.png,s_25_r_3.png,s_20_r_8.png,,
,,1,DM,2025-08-18_15h38.20.570,mlds_experiment_numerosity_triads,2025.1.1,MacIntel,60.60606061,287.8765,291.5588,right,3.1506,,0,64,64,64,1,64,5,15,30,s_5_r_1.png,s_15_r_8.png,s_30_r_2.png,,
,,1,DM,2025-08-18_15h38.20.570,mlds_experiment_numerosity_triads,2025.1.1,MacIntel,60.60606061,291.5596,298.342,right,6.2429,,0,65,65,65,1,65,30,20,15,s_30_r_1.png,s_20_r_2.png,s_15_r_8.png,,
,,1,DM,2025-08-18_15h38.20.570,mlds_experiment_numerosity_triads,2025.1.1,MacIntel,60.60606061,298.343,303.3089,left,4.4258,,0,66,66,66,1,66,25,40,50,s_25_r_6.png,s_40_r_1.png,s_50_r_5.png,,
,,1,DM,2025-08-18_15h38.20.570,mlds_experiment_numerosity_triads,2025.1.1,MacIntel,60.60606061,303.3101,306.8419,left,2.9887,,0,67,67,67,1,67,25,30,50,s_25_r_4.png,s_30_r_4.png,s_50_r_3.png,,
,,1,DM,2025-08-18_15h38.20.570,mlds_experiment_numerosity_triads,2025.1.1,MacIntel,60.60606061,306.8431,308.8089,left,1.4266,,0,68,68,68,1,68,10,15,20,s_10_r_7.png,s_15_r_7.png,s_20_r_6.png,,
,,1,DM,2025-08-18_15h38.20.570,mlds_experiment_numerosity_triads,2025.1.1,MacIntel,60.60606061,308.8098,311.6588,left,2.3067,,0,69,69,69,1,69,20,30,50,s_20_r_4.png,s_30_r_9.png,s_50_r_5.png,,
,,1,DM,2025-08-18_15h38.20.570,mlds_experiment_numerosity_triads,2025.1.1,MacIntel,60.60606061,311.66,319.6589,right,7.4611,,0,70,70,70,1,70,5,20,40,s_5_r_9.png,s_20_r_10.png,s_40_r_9.png,,
,,1,DM,2025-08-18_15h38.20.570,mlds_experiment_numerosity_triads,2025.1.1,MacIntel,60.60606061,319.6599,321.5747,right,1.3826,,0,71,71,71,1,71,25,10,5,s_25_r_7.png,s_10_r_8.png,s_5_r_9.png,,
,,1,DM,2025-08-18_15h38.20.570,mlds_experiment_numerosity_triads,2025.1.1,MacIntel,60.60606061,321.5754,325.8589,left,3.7518,,0,72,72,72,1,72,10,15,25,s_10_r_6.png,s_15_r_9.png,s_25_r_5.png,,
,,1,DM,2025-08-18_15h38.20.570,mlds_experiment_numerosity_triads,2025.1.1,MacIntel,60.60606061,325.8598,328.5587,right,2.1601,,0,73,73,73,1,73,40,50,60,s_40_r_7.png,s_50_r_9.png,s_60_r_4.png,,
,,1,DM,2025-08-18_15h38.20.570,mlds_experiment_numerosity_triads,2025.1.1,MacIntel,60.60606061,328.5596,331.1088,right,2.0073,,0,74,74,74,1,74,30,40,50,s_30_r_5.png,s_40_r_10.png,s_50_r_4.png,,
,,1,DM,2025-08-18_15h38.20.570,mlds_experiment_numerosity_triads,2025.1.1,MacIntel,60.60606061,331.1098,335.2587,right,3.6169,,0,75,75,75,1,75,60,25,20,s_60_r_3.png,s_25_r_3.png,s_20_r_1.png,,
,,1,DM,2025-08-18_15h38.20.570,mlds_experiment_numerosity_triads,2025.1.1,MacIntel,60.60606061,335.2597,337.1083,right,1.3072,,0,76,76,76,1,76,5,25,60,s_5_r_2.png,s_25_r_6.png,s_60_r_10.png,,
,,1,DM,2025-08-18_15h38.20.570,mlds_experiment_numerosity_triads,2025.1.1,MacIntel,60.60606061,337.1091,343.9088,right,6.2685,,0,77,77,77,1,77,60,20,5,s_60_r_1.png,s_20_r_9.png,s_5_r_7.png,,
,,1,DM,2025-08-18_15h38.20.570,mlds_experiment_numerosity_triads,2025.1.1,MacIntel,60.60606061,343.9096,346.2084,right,1.7704,,0,78,78,78,1,78,5,50,60,s_5_r_7.png,s_50_r_1.png,s_60_r_2.png,,
,,1,DM,2025-08-18_15h38.20.570,mlds_experiment_numerosity_triads,2025.1.1,MacIntel,60.60606061,346.2091,348.7422,right,1.9906,,0,79,79,79,1,79,10,30,40,s_10_r_5.png,s_30_r_3.png,s_40_r_6.png,,
,,1,DM,2025-08-18_15h38.20.570,mlds_experiment_numerosity_triads,2025.1.1,MacIntel,60.60606061,348.7436,353.7087,left,4.4236,,0,80,80,80,1,80,5,10,20,s_5_r_1.png,s_10_r_8.png,s_20_r_2.png,,
,,1,DM,2025-08-18_15h38.20.570,mlds_experiment_numerosity_triads,2025.1.1,MacIntel,60.60606061,353.7096,355.9747,right,1.7334,,0,81,81,81,1,81,5,40,60,s_5_r_9.png,s_40_r_8.png,s_60_r_10.png,,
,,1,DM,2025-08-18_15h38.20.570,mlds_experiment_numerosity_triads,2025.1.1,MacIntel,60.60606061,355.9755,357.5918,left,1.0828,,0,82,82,82,1,82,30,25,5,s_30_r_10.png,s_25_r_7.png,s_5_r_3.png,,
,,1,DM,2025-08-18_15h38.20.570,mlds_experiment_numerosity_triads,2025.1.1,MacIntel,60.60606061,357.5926,359.6254,left,1.4931,,0,83,83,83,1,83,50,25,15,s_50_r_9.png,s_25_r_3.png,s_15_r_9.png,,
,,1,DM,2025-08-18_15h38.20.570,mlds_experiment_numerosity_triads,2025.1.1,MacIntel,60.60606061,,,,,,,,,,,,,,,,,,359.6258,361.6254
