instruct.started,instruct.stopped,session,participant,date,expName,psychopyVersion,OS,frameRate,trial.started,trial.stopped,resp.keys,resp.rt,resp.duration,trials.thisRepN,trials.thisTrialN,trials.thisN,trials.thisIndex,trials.ran,trial,s1,s2,s3,im1,im2,im3,thanks.started,thanks.stopped
,,2,GA1,2025-08-14_17h29.15.436,mlds_experiment_numerosity_triads,2025.1.1,Linux x86_64,59.88023952,1.7544,3.5595,left,1.2703,,0,0,0,0,1,0,50,40,25,s_50_r_4.png,s_40_r_5.png,s_25_r_6.png,,
,,2,GA1,2025-08-14_17h29.15.436,mlds_experiment_numerosity_triads,2025.1.1,Linux x86_64,59.88023952,3.5621,6.778,left,2.675,,0,1,1,1,1,1,10,15,30,s_10_r_7.png,s_15_r_6.png,s_30_r_2.png,,
,,2,GA1,2025-08-14_17h29.15.436,mlds_experiment_numerosity_triads,2025.1.1,Linux x86_64,59.88023952,6.7798,8.913,left,1.5892,,0,2,2,2,1,2,60,40,5,s_60_r_2.png,s_40_r_1.png,s_5_r_10.png,,
,,2,GA1,2025-08-14_17h29.15.436,mlds_experiment_numerosity_triads,2025.1.1,Linux x86_64,59.88023952,8.9152,12.7159,right,3.2629,,0,3,3,3,1,3,15,50,60,s_15_r_1.png,s_50_r_6.png,s_60_r_6.png,,
,,2,GA1,2025-08-14_17h29.15.436,mlds_experiment_numerosity_triads,2025.1.1,Linux x86_64,59.88023952,12.7179,14.7182,right,1.4638,,0,4,4,4,1,4,50,20,15,s_50_r_10.png,s_20_r_5.png,s_15_r_6.png,,
,,2,GA1,2025-08-14_17h29.15.436,mlds_experiment_numerosity_triads,2025.1.1,Linux x86_64,59.88023952,14.7192,16.1362,left,0.873,,0,5,5,5,1,5,60,50,40,s_60_r_6.png,s_50_r_9.png,s_40_r_2.png,,
,,2,GA1,2025-08-14_17h29.15.436,mlds_experiment_numerosity_triads,2025.1.1,Linux x86_64,59.88023952,16.1378,18.0708,right,1.3905,,0,6,6,6,1,6,5,50,60,s_5_r_5.png,s_50_r_8.png,s_60_r_9.png,,
,,2,GA1,2025-08-14_17h29.15.436,mlds_experiment_numerosity_triads,2025.1.1,Linux x86_64,59.88023952,18.0726,21.2901,right,2.6754,,0,7,7,7,1,7,60,20,5,s_60_r_5.png,s_20_r_1.png,s_5_r_10.png,,
,,2,GA1,2025-08-14_17h29.15.436,mlds_experiment_numerosity_triads,2025.1.1,Linux x86_64,59.88023952,21.2915,22.9417,right,1.1111,,0,8,8,8,1,8,30,25,20,s_30_r_2.png,s_25_r_2.png,s_20_r_9.png,,
,,2,GA1,2025-08-14_17h29.15.436,mlds_experiment_numerosity_triads,2025.1.1,Linux x86_64,59.88023952,22.9431,24.1257,left,0.6429,,0,9,9,9,1,9,10,15,50,s_10_r_3.png,s_15_r_6.png,s_50_r_3.png,,
,,2,GA1,2025-08-14_17h29.15.436,mlds_experiment_numerosity_triads,2025.1.1,Linux x86_64,59.88023952,24.1267,25.4603,left,0.7994,,0,10,10,10,1,10,40,30,20,s_40_r_6.png,s_30_r_4.png,s_20_r_6.png,,
,,2,GA1,2025-08-14_17h29.15.436,mlds_experiment_numerosity_triads,2025.1.1,Linux x86_64,59.88023952,25.4614,26.6616,left,0.657,,0,11,11,11,1,11,40,25,10,s_40_r_1.png,s_25_r_8.png,s_10_r_8.png,,
,,2,GA1,2025-08-14_17h29.15.436,mlds_experiment_numerosity_triads,2025.1.1,Linux x86_64,59.88023952,26.6637,27.8456,right,0.6402,,0,12,12,12,1,12,15,40,60,s_15_r_1.png,s_40_r_2.png,s_60_r_10.png,,
,,2,GA1,2025-08-14_17h29.15.436,mlds_experiment_numerosity_triads,2025.1.1,Linux x86_64,59.88023952,27.8477,30.114,right,1.7277,,0,13,13,13,1,13,30,10,5,s_30_r_1.png,s_10_r_1.png,s_5_r_4.png,,
,,2,GA1,2025-08-14_17h29.15.436,mlds_experiment_numerosity_triads,2025.1.1,Linux x86_64,59.88023952,30.1149,32.1823,left,1.5433,,0,14,14,14,1,14,25,30,60,s_25_r_2.png,s_30_r_2.png,s_60_r_9.png,,
,,2,GA1,2025-08-14_17h29.15.436,mlds_experiment_numerosity_triads,2025.1.1,Linux x86_64,59.88023952,32.1833,33.4512,right,0.7305,,0,15,15,15,1,15,60,15,5,s_60_r_4.png,s_15_r_9.png,s_5_r_1.png,,
,,2,GA1,2025-08-14_17h29.15.436,mlds_experiment_numerosity_triads,2025.1.1,Linux x86_64,59.88023952,33.4529,34.6512,left,0.6683,,0,16,16,16,1,16,5,10,50,s_5_r_1.png,s_10_r_10.png,s_50_r_3.png,,
,,2,GA1,2025-08-14_17h29.15.436,mlds_experiment_numerosity_triads,2025.1.1,Linux x86_64,59.88023952,34.6522,36.7694,right,1.5736,,0,17,17,17,1,17,10,20,25,s_10_r_2.png,s_20_r_6.png,s_25_r_2.png,,
,,2,GA1,2025-08-14_17h29.15.436,mlds_experiment_numerosity_triads,2025.1.1,Linux x86_64,59.88023952,36.7708,39.4051,right,2.1122,,0,18,18,18,1,18,60,30,15,s_60_r_3.png,s_30_r_8.png,s_15_r_7.png,,
,,2,GA1,2025-08-14_17h29.15.436,mlds_experiment_numerosity_triads,2025.1.1,Linux x86_64,59.88023952,39.406,41.0071,left,1.0714,,0,19,19,19,1,19,5,10,20,s_5_r_1.png,s_10_r_6.png,s_20_r_10.png,,
,,2,GA1,2025-08-14_17h29.15.436,mlds_experiment_numerosity_triads,2025.1.1,Linux x86_64,59.88023952,41.0081,42.3916,left,0.8483,,0,20,20,20,1,20,20,25,60,s_20_r_7.png,s_25_r_5.png,s_60_r_2.png,,
,,2,GA1,2025-08-14_17h29.15.436,mlds_experiment_numerosity_triads,2025.1.1,Linux x86_64,59.88023952,42.3931,43.8093,right,0.8734,,0,21,21,21,1,21,60,25,10,s_60_r_1.png,s_25_r_3.png,s_10_r_5.png,,
,,2,GA1,2025-08-14_17h29.15.436,mlds_experiment_numerosity_triads,2025.1.1,Linux x86_64,59.88023952,43.8107,46.3945,left,2.0592,,0,22,22,22,1,22,30,25,15,s_30_r_5.png,s_25_r_8.png,s_15_r_2.png,,
,,2,GA1,2025-08-14_17h29.15.436,mlds_experiment_numerosity_triads,2025.1.1,Linux x86_64,59.88023952,46.3962,48.896,left,1.9564,,0,23,23,23,1,23,25,20,15,s_25_r_3.png,s_20_r_2.png,s_15_r_5.png,,
,,2,GA1,2025-08-14_17h29.15.436,mlds_experiment_numerosity_triads,2025.1.1,Linux x86_64,59.88023952,48.8966,50.0644,right,0.643,,0,24,24,24,1,24,40,10,5,s_40_r_5.png,s_10_r_9.png,s_5_r_9.png,,
,,2,GA1,2025-08-14_17h29.15.436,mlds_experiment_numerosity_triads,2025.1.1,Linux x86_64,59.88023952,50.0658,51.4985,left,0.8974,,0,25,25,25,1,25,5,10,15,s_5_r_10.png,s_10_r_10.png,s_15_r_8.png,,
,,2,GA1,2025-08-14_17h29.15.436,mlds_experiment_numerosity_triads,2025.1.1,Linux x86_64,59.88023952,51.4993,52.8505,left,0.8321,,0,26,26,26,1,26,5,20,50,s_5_r_5.png,s_20_r_10.png,s_50_r_2.png,,
,,2,GA1,2025-08-14_17h29.15.436,mlds_experiment_numerosity_triads,2025.1.1,Linux x86_64,59.88023952,52.8514,54.4351,right,1.052,,0,27,27,27,1,27,5,25,60,s_5_r_10.png,s_25_r_10.png,s_60_r_2.png,,
,,2,GA1,2025-08-14_17h29.15.436,mlds_experiment_numerosity_triads,2025.1.1,Linux x86_64,59.88023952,54.4367,55.669,right,0.6938,,0,28,28,28,1,28,5,20,30,s_5_r_4.png,s_20_r_2.png,s_30_r_6.png,,
,,2,GA1,2025-08-14_17h29.15.436,mlds_experiment_numerosity_triads,2025.1.1,Linux x86_64,59.88023952,55.67,56.8536,right,0.6609,,0,29,29,29,1,29,5,15,25,s_5_r_10.png,s_15_r_10.png,s_25_r_6.png,,
,,2,GA1,2025-08-14_17h29.15.436,mlds_experiment_numerosity_triads,2025.1.1,Linux x86_64,59.88023952,56.8553,58.4048,right,1.0102,,0,30,30,30,1,30,25,30,40,s_25_r_2.png,s_30_r_7.png,s_40_r_7.png,,
,,2,GA1,2025-08-14_17h29.15.436,mlds_experiment_numerosity_triads,2025.1.1,Linux x86_64,59.88023952,58.4072,60.023,right,1.0778,,0,31,31,31,1,31,60,20,15,s_60_r_8.png,s_20_r_9.png,s_15_r_5.png,,
,,2,GA1,2025-08-14_17h29.15.436,mlds_experiment_numerosity_triads,2025.1.1,Linux x86_64,59.88023952,60.0244,61.1736,right,0.6054,,0,32,32,32,1,32,5,40,50,s_5_r_10.png,s_40_r_7.png,s_50_r_3.png,,
,,2,GA1,2025-08-14_17h29.15.436,mlds_experiment_numerosity_triads,2025.1.1,Linux x86_64,59.88023952,61.1746,63.1088,left,1.3943,,0,33,33,33,1,33,50,40,10,s_50_r_3.png,s_40_r_4.png,s_10_r_9.png,,
,,2,GA1,2025-08-14_17h29.15.436,mlds_experiment_numerosity_triads,2025.1.1,Linux x86_64,59.88023952,63.1104,64.3598,left,0.7071,,0,34,34,34,1,34,10,15,40,s_10_r_3.png,s_15_r_5.png,s_40_r_6.png,,
,,2,GA1,2025-08-14_17h29.15.436,mlds_experiment_numerosity_triads,2025.1.1,Linux x86_64,59.88023952,64.3615,65.5773,right,0.6781,,0,35,35,35,1,35,5,25,40,s_5_r_8.png,s_25_r_1.png,s_40_r_10.png,,
,,2,GA1,2025-08-14_17h29.15.436,mlds_experiment_numerosity_triads,2025.1.1,Linux x86_64,59.88023952,65.5781,67.3456,right,1.2415,,0,36,36,36,1,36,25,40,60,s_25_r_2.png,s_40_r_5.png,s_60_r_5.png,,
,,2,GA1,2025-08-14_17h29.15.436,mlds_experiment_numerosity_triads,2025.1.1,Linux x86_64,59.88023952,67.3467,68.9469,right,1.056,,0,37,37,37,1,37,25,30,50,s_25_r_5.png,s_30_r_5.png,s_50_r_1.png,,
,,2,GA1,2025-08-14_17h29.15.436,mlds_experiment_numerosity_triads,2025.1.1,Linux x86_64,59.88023952,68.9487,70.2482,left,0.7572,,0,38,38,38,1,38,60,40,10,s_60_r_10.png,s_40_r_3.png,s_10_r_6.png,,
,,2,GA1,2025-08-14_17h29.15.436,mlds_experiment_numerosity_triads,2025.1.1,Linux x86_64,59.88023952,70.2497,71.5658,right,0.7733,,0,39,39,39,1,39,25,10,5,s_25_r_6.png,s_10_r_3.png,s_5_r_10.png,,
,,2,GA1,2025-08-14_17h29.15.436,mlds_experiment_numerosity_triads,2025.1.1,Linux x86_64,59.88023952,71.5669,73.4671,right,1.3725,,0,40,40,40,1,40,30,40,60,s_30_r_1.png,s_40_r_5.png,s_60_r_8.png,,
,,2,GA1,2025-08-14_17h29.15.436,mlds_experiment_numerosity_triads,2025.1.1,Linux x86_64,59.88023952,73.4682,74.6184,right,0.601,,0,41,41,41,1,41,5,30,60,s_5_r_1.png,s_30_r_8.png,s_60_r_3.png,,
,,2,GA1,2025-08-14_17h29.15.436,mlds_experiment_numerosity_triads,2025.1.1,Linux x86_64,59.88023952,74.6195,76.1865,right,1.0225,,0,42,42,42,1,42,20,30,50,s_20_r_10.png,s_30_r_6.png,s_50_r_3.png,,
,,2,GA1,2025-08-14_17h29.15.436,mlds_experiment_numerosity_triads,2025.1.1,Linux x86_64,59.88023952,76.1881,77.4039,right,0.6729,,0,43,43,43,1,43,5,20,40,s_5_r_8.png,s_20_r_6.png,s_40_r_3.png,,
,,2,GA1,2025-08-14_17h29.15.436,mlds_experiment_numerosity_triads,2025.1.1,Linux x86_64,59.88023952,77.4056,78.8053,right,0.8766,,0,44,44,44,1,44,40,30,15,s_40_r_5.png,s_30_r_2.png,s_15_r_4.png,,
,,2,GA1,2025-08-14_17h29.15.436,mlds_experiment_numerosity_triads,2025.1.1,Linux x86_64,59.88023952,78.8069,80.3733,right,1.0235,,0,45,45,45,1,45,50,30,10,s_50_r_9.png,s_30_r_9.png,s_10_r_9.png,,
,,2,GA1,2025-08-14_17h29.15.436,mlds_experiment_numerosity_triads,2025.1.1,Linux x86_64,59.88023952,80.3752,82.1246,right,1.2155,,0,46,46,46,1,46,50,30,5,s_50_r_3.png,s_30_r_6.png,s_5_r_10.png,,
,,2,GA1,2025-08-14_17h29.15.436,mlds_experiment_numerosity_triads,2025.1.1,Linux x86_64,59.88023952,82.126,84.1595,left,1.4863,,0,47,47,47,1,47,40,30,10,s_40_r_5.png,s_30_r_5.png,s_10_r_10.png,,
,,2,GA1,2025-08-14_17h29.15.436,mlds_experiment_numerosity_triads,2025.1.1,Linux x86_64,59.88023952,84.1606,85.811,left,1.1087,,0,48,48,48,1,48,40,20,10,s_40_r_8.png,s_20_r_9.png,s_10_r_1.png,,
,,2,GA1,2025-08-14_17h29.15.436,mlds_experiment_numerosity_triads,2025.1.1,Linux x86_64,59.88023952,85.812,87.0289,left,0.6756,,0,49,49,49,1,49,5,10,60,s_5_r_2.png,s_10_r_6.png,s_60_r_1.png,,
,,2,GA1,2025-08-14_17h29.15.436,mlds_experiment_numerosity_triads,2025.1.1,Linux x86_64,59.88023952,87.0308,88.8298,left,1.2623,,0,50,50,50,1,50,10,15,60,s_10_r_1.png,s_15_r_10.png,s_60_r_10.png,,
,,2,GA1,2025-08-14_17h29.15.436,mlds_experiment_numerosity_triads,2025.1.1,Linux x86_64,59.88023952,88.8303,90.0818,right,0.7286,,0,51,51,51,1,51,25,50,60,s_25_r_4.png,s_50_r_1.png,s_60_r_1.png,,
,,2,GA1,2025-08-14_17h29.15.436,mlds_experiment_numerosity_triads,2025.1.1,Linux x86_64,59.88023952,90.0833,91.3156,right,0.6979,,0,52,52,52,1,52,5,25,30,s_5_r_1.png,s_25_r_6.png,s_30_r_2.png,,
,,2,GA1,2025-08-14_17h29.15.436,mlds_experiment_numerosity_triads,2025.1.1,Linux x86_64,59.88023952,91.3171,92.6501,right,0.7955,,0,53,53,53,1,53,10,25,30,s_10_r_9.png,s_25_r_8.png,s_30_r_4.png,,
,,2,GA1,2025-08-14_17h29.15.436,mlds_experiment_numerosity_triads,2025.1.1,Linux x86_64,59.88023952,92.6511,93.9176,right,0.745,,0,54,54,54,1,54,30,40,50,s_30_r_6.png,s_40_r_10.png,s_50_r_2.png,,
,,2,GA1,2025-08-14_17h29.15.436,mlds_experiment_numerosity_triads,2025.1.1,Linux x86_64,59.88023952,93.9185,96.2699,right,1.8078,,0,55,55,55,1,55,20,30,60,s_20_r_7.png,s_30_r_7.png,s_60_r_8.png,,
,,2,GA1,2025-08-14_17h29.15.436,mlds_experiment_numerosity_triads,2025.1.1,Linux x86_64,59.88023952,96.272,97.4875,right,0.6778,,0,56,56,56,1,56,10,15,20,s_10_r_6.png,s_15_r_8.png,s_20_r_5.png,,
,,2,GA1,2025-08-14_17h29.15.436,mlds_experiment_numerosity_triads,2025.1.1,Linux x86_64,59.88023952,97.4885,99.1394,right,1.106,,0,57,57,57,1,57,60,25,15,s_60_r_9.png,s_25_r_3.png,s_15_r_1.png,,
,,2,GA1,2025-08-14_17h29.15.436,mlds_experiment_numerosity_triads,2025.1.1,Linux x86_64,59.88023952,99.1409,100.8403,right,1.1578,,0,58,58,58,1,58,25,15,10,s_25_r_9.png,s_15_r_9.png,s_10_r_7.png,,
,,2,GA1,2025-08-14_17h29.15.436,mlds_experiment_numerosity_triads,2025.1.1,Linux x86_64,59.88023952,100.8417,101.9583,right,0.5768,,0,59,59,59,1,59,10,20,30,s_10_r_7.png,s_20_r_8.png,s_30_r_2.png,,
,,2,GA1,2025-08-14_17h29.15.436,mlds_experiment_numerosity_triads,2025.1.1,Linux x86_64,59.88023952,101.9601,103.0758,right,0.5731,,0,60,60,60,1,60,40,20,15,s_40_r_5.png,s_20_r_9.png,s_15_r_5.png,,
,,2,GA1,2025-08-14_17h29.15.436,mlds_experiment_numerosity_triads,2025.1.1,Linux x86_64,59.88023952,103.0775,106.0616,right,2.4439,,0,61,61,61,1,61,40,15,5,s_40_r_1.png,s_15_r_3.png,s_5_r_8.png,,
,,2,GA1,2025-08-14_17h29.15.436,mlds_experiment_numerosity_triads,2025.1.1,Linux x86_64,59.88023952,106.0634,107.613,left,1.0135,,0,62,62,62,1,62,60,50,10,s_60_r_4.png,s_50_r_3.png,s_10_r_6.png,,
,,2,GA1,2025-08-14_17h29.15.436,mlds_experiment_numerosity_triads,2025.1.1,Linux x86_64,59.88023952,107.6142,110.0154,left,1.859,,0,63,63,63,1,63,20,15,5,s_20_r_7.png,s_15_r_10.png,s_5_r_2.png,,
,,2,GA1,2025-08-14_17h29.15.436,mlds_experiment_numerosity_triads,2025.1.1,Linux x86_64,59.88023952,110.0171,111.3664,left,0.8048,,0,64,64,64,1,64,50,40,20,s_50_r_7.png,s_40_r_6.png,s_20_r_3.png,,
,,2,GA1,2025-08-14_17h29.15.436,mlds_experiment_numerosity_triads,2025.1.1,Linux x86_64,59.88023952,111.3683,112.9344,right,1.0277,,0,65,65,65,1,65,50,25,20,s_50_r_2.png,s_25_r_9.png,s_20_r_7.png,,
,,2,GA1,2025-08-14_17h29.15.436,mlds_experiment_numerosity_triads,2025.1.1,Linux x86_64,59.88023952,112.9359,114.7523,right,1.2821,,0,66,66,66,1,66,40,25,20,s_40_r_4.png,s_25_r_8.png,s_20_r_7.png,,
,,2,GA1,2025-08-14_17h29.15.436,mlds_experiment_numerosity_triads,2025.1.1,Linux x86_64,59.88023952,114.7538,115.8865,right,0.5891,,0,67,67,67,1,67,5,20,25,s_5_r_2.png,s_20_r_3.png,s_25_r_7.png,,
,,2,GA1,2025-08-14_17h29.15.436,mlds_experiment_numerosity_triads,2025.1.1,Linux x86_64,59.88023952,115.8878,117.1713,left,0.7438,,0,68,68,68,1,68,10,20,50,s_10_r_5.png,s_20_r_10.png,s_50_r_3.png,,
,,2,GA1,2025-08-14_17h29.15.436,mlds_experiment_numerosity_triads,2025.1.1,Linux x86_64,59.88023952,117.1725,118.505,left,0.7937,,0,69,69,69,1,69,60,40,20,s_60_r_6.png,s_40_r_1.png,s_20_r_3.png,,
,,2,GA1,2025-08-14_17h29.15.436,mlds_experiment_numerosity_triads,2025.1.1,Linux x86_64,59.88023952,118.5064,119.8069,right,0.7722,,0,70,70,70,1,70,20,50,60,s_20_r_5.png,s_50_r_8.png,s_60_r_9.png,,
,,2,GA1,2025-08-14_17h29.15.436,mlds_experiment_numerosity_triads,2025.1.1,Linux x86_64,59.88023952,119.8085,121.007,right,0.6642,,0,71,71,71,1,71,30,50,60,s_30_r_2.png,s_50_r_10.png,s_60_r_6.png,,
,,2,GA1,2025-08-14_17h29.15.436,mlds_experiment_numerosity_triads,2025.1.1,Linux x86_64,59.88023952,121.008,122.2086,right,0.6669,,0,72,72,72,1,72,50,25,10,s_50_r_10.png,s_25_r_1.png,s_10_r_5.png,,
,,2,GA1,2025-08-14_17h29.15.436,mlds_experiment_numerosity_triads,2025.1.1,Linux x86_64,59.88023952,122.2102,123.3762,right,0.6228,,0,73,73,73,1,73,10,30,60,s_10_r_6.png,s_30_r_10.png,s_60_r_6.png,,
,,2,GA1,2025-08-14_17h29.15.436,mlds_experiment_numerosity_triads,2025.1.1,Linux x86_64,59.88023952,123.3771,124.5108,right,0.5924,,0,74,74,74,1,74,15,30,50,s_15_r_1.png,s_30_r_9.png,s_50_r_4.png,,
,,2,GA1,2025-08-14_17h29.15.436,mlds_experiment_numerosity_triads,2025.1.1,Linux x86_64,59.88023952,124.5119,126.2289,left,1.1754,,0,75,75,75,1,75,30,15,5,s_30_r_4.png,s_15_r_1.png,s_5_r_4.png,,
,,2,GA1,2025-08-14_17h29.15.436,mlds_experiment_numerosity_triads,2025.1.1,Linux x86_64,59.88023952,126.2304,127.3633,right,0.5884,,0,76,76,76,1,76,15,25,40,s_15_r_3.png,s_25_r_1.png,s_40_r_4.png,,
,,2,GA1,2025-08-14_17h29.15.436,mlds_experiment_numerosity_triads,2025.1.1,Linux x86_64,59.88023952,127.3648,128.6636,right,0.7656,,0,77,77,77,1,77,50,25,15,s_50_r_10.png,s_25_r_1.png,s_15_r_1.png,,
,,2,GA1,2025-08-14_17h29.15.436,mlds_experiment_numerosity_triads,2025.1.1,Linux x86_64,59.88023952,128.6645,130.0653,right,0.8755,,0,78,78,78,1,78,15,20,30,s_15_r_3.png,s_20_r_4.png,s_30_r_6.png,,
,,2,GA1,2025-08-14_17h29.15.436,mlds_experiment_numerosity_triads,2025.1.1,Linux x86_64,59.88023952,130.0668,131.2329,right,0.6213,,0,79,79,79,1,79,15,40,50,s_15_r_7.png,s_40_r_8.png,s_50_r_5.png,,
,,2,GA1,2025-08-14_17h29.15.436,mlds_experiment_numerosity_triads,2025.1.1,Linux x86_64,59.88023952,131.2344,132.4841,left,0.7182,,0,80,80,80,1,80,5,15,50,s_5_r_9.png,s_15_r_9.png,s_50_r_9.png,,
,,2,GA1,2025-08-14_17h29.15.436,mlds_experiment_numerosity_triads,2025.1.1,Linux x86_64,59.88023952,132.4856,133.8348,right,0.8066,,0,81,81,81,1,81,60,20,10,s_60_r_4.png,s_20_r_1.png,s_10_r_2.png,,
,,2,GA1,2025-08-14_17h29.15.436,mlds_experiment_numerosity_triads,2025.1.1,Linux x86_64,59.88023952,133.8358,135.1863,right,0.8122,,0,82,82,82,1,82,5,25,50,s_5_r_1.png,s_25_r_3.png,s_50_r_7.png,,
,,2,GA1,2025-08-14_17h29.15.436,mlds_experiment_numerosity_triads,2025.1.1,Linux x86_64,59.88023952,135.1884,136.6205,left,0.8914,,0,83,83,83,1,83,40,30,5,s_40_r_3.png,s_30_r_5.png,s_5_r_10.png,,
