instruct.started,instruct.stopped,session,participant,date,expName,psychopyVersion,OS,frameRate,trial.started,trial.stopped,resp.keys,resp.rt,resp.duration,trials.thisRepN,trials.thisTrialN,trials.thisN,trials.thisIndex,trials.ran,trial,s1,s2,s3,im1,im2,im3,thanks.started,thanks.stopped
,,1,GAD2,2025-08-14_18h21.14.836,mlds_experiment_numerosity_triads,2025.1.1,Linux x86_64,60.24096386,1.2997,2.9204,right,1.0844,,0,0,0,0,1,0,200,15,10,s_200_r_7.png,s_15_r_2.png,s_10_r_9.png,,
,,1,GAD2,2025-08-14_18h21.14.836,mlds_experiment_numerosity_triads,2025.1.1,Linux x86_64,60.24096386,2.9221,5.8557,right,2.3899,,0,1,1,1,1,1,15,100,150,s_15_r_8.png,s_100_r_4.png,s_150_r_1.png,,
,,1,GAD2,2025-08-14_18h21.14.836,mlds_experiment_numerosity_triads,2025.1.1,Linux x86_64,60.24096386,5.8569,12.9614,right,6.567,,0,2,2,2,1,2,100,50,15,s_100_r_4.png,s_50_r_1.png,s_15_r_2.png,,
,,1,GAD2,2025-08-14_18h21.14.836,mlds_experiment_numerosity_triads,2025.1.1,Linux x86_64,60.24096386,12.9623,16.6649,right,3.1566,,0,3,3,3,1,3,150,50,20,s_150_r_8.png,s_50_r_3.png,s_20_r_4.png,,
,,1,GAD2,2025-08-14_18h21.14.836,mlds_experiment_numerosity_triads,2025.1.1,Linux x86_64,60.24096386,16.6676,18.5999,left,1.3882,,0,4,4,4,1,4,20,25,200,s_20_r_8.png,s_25_r_7.png,s_200_r_9.png,,
,,1,GAD2,2025-08-14_18h21.14.836,mlds_experiment_numerosity_triads,2025.1.1,Linux x86_64,60.24096386,18.6016,20.2347,right,1.0905,,0,5,5,5,1,5,200,50,15,s_200_r_6.png,s_50_r_7.png,s_15_r_7.png,,
,,1,GAD2,2025-08-14_18h21.14.836,mlds_experiment_numerosity_triads,2025.1.1,Linux x86_64,60.24096386,20.2358,22.036,left,1.257,,0,6,6,6,1,6,10,15,100,s_10_r_10.png,s_15_r_10.png,s_100_r_2.png,,
,,1,GAD2,2025-08-14_18h21.14.836,mlds_experiment_numerosity_triads,2025.1.1,Linux x86_64,60.24096386,22.0371,25.9222,left,3.3395,,0,7,7,7,1,7,10,75,200,s_10_r_6.png,s_75_r_9.png,s_200_r_1.png,,
,,1,GAD2,2025-08-14_18h21.14.836,mlds_experiment_numerosity_triads,2025.1.1,Linux x86_64,60.24096386,25.9236,27.7744,right,1.3076,,0,8,8,8,1,8,75,20,15,s_75_r_3.png,s_20_r_6.png,s_15_r_10.png,,
,,1,GAD2,2025-08-14_18h21.14.836,mlds_experiment_numerosity_triads,2025.1.1,Linux x86_64,60.24096386,27.7754,29.2918,left,0.9737,,0,9,9,9,1,9,75,50,10,s_75_r_9.png,s_50_r_4.png,s_10_r_1.png,,
,,1,GAD2,2025-08-14_18h21.14.836,mlds_experiment_numerosity_triads,2025.1.1,Linux x86_64,60.24096386,29.293,31.6272,right,1.7946,,0,10,10,10,1,10,100,20,10,s_100_r_2.png,s_20_r_4.png,s_10_r_3.png,,
,,1,GAD2,2025-08-14_18h21.14.836,mlds_experiment_numerosity_triads,2025.1.1,Linux x86_64,60.24096386,31.6287,34.0629,left,1.8908,,0,11,11,11,1,11,10,50,150,s_10_r_4.png,s_50_r_6.png,s_150_r_3.png,,
,,1,GAD2,2025-08-14_18h21.14.836,mlds_experiment_numerosity_triads,2025.1.1,Linux x86_64,60.24096386,34.065,35.7642,left,1.1656,,0,12,12,12,1,12,75,50,15,s_75_r_1.png,s_50_r_6.png,s_15_r_1.png,,
,,1,GAD2,2025-08-14_18h21.14.836,mlds_experiment_numerosity_triads,2025.1.1,Linux x86_64,60.24096386,35.766,39.3176,left,3.007,,0,13,13,13,1,13,20,15,10,s_20_r_2.png,s_15_r_2.png,s_10_r_6.png,,
,,1,GAD2,2025-08-14_18h21.14.836,mlds_experiment_numerosity_triads,2025.1.1,Linux x86_64,60.24096386,39.3193,41.0858,left,1.2214,,0,14,14,14,1,14,20,25,100,s_20_r_6.png,s_25_r_6.png,s_100_r_8.png,,
,,1,GAD2,2025-08-14_18h21.14.836,mlds_experiment_numerosity_triads,2025.1.1,Linux x86_64,60.24096386,41.0879,43.704,left,2.0729,,0,15,15,15,1,15,150,100,10,s_150_r_10.png,s_100_r_9.png,s_10_r_2.png,,
,,1,GAD2,2025-08-14_18h21.14.836,mlds_experiment_numerosity_triads,2025.1.1,Linux x86_64,60.24096386,43.7054,46.8739,left,2.6389,,0,16,16,16,1,16,25,20,15,s_25_r_9.png,s_20_r_7.png,s_15_r_3.png,,
,,1,GAD2,2025-08-14_18h21.14.836,mlds_experiment_numerosity_triads,2025.1.1,Linux x86_64,60.24096386,46.8759,49.5922,left,2.175,,0,17,17,17,1,17,200,100,15,s_200_r_10.png,s_100_r_5.png,s_15_r_5.png,,
,,1,GAD2,2025-08-14_18h21.14.836,mlds_experiment_numerosity_triads,2025.1.1,Linux x86_64,60.24096386,49.5941,51.1275,right,0.9898,,0,18,18,18,1,18,10,75,150,s_10_r_10.png,s_75_r_10.png,s_150_r_7.png,,
,,1,GAD2,2025-08-14_18h21.14.836,mlds_experiment_numerosity_triads,2025.1.1,Linux x86_64,60.24096386,51.1287,53.1293,right,1.4754,,0,19,19,19,1,19,25,15,10,s_25_r_5.png,s_15_r_6.png,s_10_r_1.png,,
,,1,GAD2,2025-08-14_18h21.14.836,mlds_experiment_numerosity_triads,2025.1.1,Linux x86_64,60.24096386,53.1305,55.2473,left,1.5742,,0,20,20,20,1,20,25,20,10,s_25_r_6.png,s_20_r_8.png,s_10_r_3.png,,
,,1,GAD2,2025-08-14_18h21.14.836,mlds_experiment_numerosity_triads,2025.1.1,Linux x86_64,60.24096386,55.2493,57.2156,left,1.4226,,0,21,21,21,1,21,100,50,20,s_100_r_8.png,s_50_r_5.png,s_20_r_4.png,,
,,1,GAD2,2025-08-14_18h21.14.836,mlds_experiment_numerosity_triads,2025.1.1,Linux x86_64,60.24096386,57.2168,58.5832,left,0.8225,,0,22,22,22,1,22,200,150,15,s_200_r_1.png,s_150_r_2.png,s_15_r_6.png,,
,,1,GAD2,2025-08-14_18h21.14.836,mlds_experiment_numerosity_triads,2025.1.1,Linux x86_64,60.24096386,58.5844,60.1181,right,0.9894,,0,23,23,23,1,23,50,15,10,s_50_r_9.png,s_15_r_5.png,s_10_r_6.png,,
,,1,GAD2,2025-08-14_18h21.14.836,mlds_experiment_numerosity_triads,2025.1.1,Linux x86_64,60.24096386,60.1194,62.0195,left,1.3619,,0,24,24,24,1,24,10,25,100,s_10_r_9.png,s_25_r_10.png,s_100_r_9.png,,
,,1,GAD2,2025-08-14_18h21.14.836,mlds_experiment_numerosity_triads,2025.1.1,Linux x86_64,60.24096386,62.0204,63.4875,right,0.9275,,0,25,25,25,1,25,15,75,100,s_15_r_5.png,s_75_r_1.png,s_100_r_8.png,,
,,1,GAD2,2025-08-14_18h21.14.836,mlds_experiment_numerosity_triads,2025.1.1,Linux x86_64,60.24096386,63.489,65.256,right,1.2227,,0,26,26,26,1,26,100,20,15,s_100_r_7.png,s_20_r_9.png,s_15_r_6.png,,
,,1,GAD2,2025-08-14_18h21.14.836,mlds_experiment_numerosity_triads,2025.1.1,Linux x86_64,60.24096386,65.2575,67.6409,left,1.8402,,0,27,27,27,1,27,100,75,50,s_100_r_10.png,s_75_r_2.png,s_50_r_9.png,,
,,1,GAD2,2025-08-14_18h21.14.836,mlds_experiment_numerosity_triads,2025.1.1,Linux x86_64,60.24096386,67.6427,74.2299,right,6.0459,,0,28,28,28,1,28,20,100,200,s_20_r_6.png,s_100_r_10.png,s_200_r_10.png,,
,,1,GAD2,2025-08-14_18h21.14.836,mlds_experiment_numerosity_triads,2025.1.1,Linux x86_64,60.24096386,74.2315,76.0645,left,1.2906,,0,29,29,29,1,29,10,20,200,s_10_r_5.png,s_20_r_9.png,s_200_r_2.png,,
,,1,GAD2,2025-08-14_18h21.14.836,mlds_experiment_numerosity_triads,2025.1.1,Linux x86_64,60.24096386,76.0663,77.5326,right,0.9228,,0,30,30,30,1,30,150,25,20,s_150_r_9.png,s_25_r_4.png,s_20_r_3.png,,
,,1,GAD2,2025-08-14_18h21.14.836,mlds_experiment_numerosity_triads,2025.1.1,Linux x86_64,60.24096386,77.5341,78.9345,right,0.8606,,0,31,31,31,1,31,75,150,200,s_75_r_5.png,s_150_r_8.png,s_200_r_4.png,,
,,1,GAD2,2025-08-14_18h21.14.836,mlds_experiment_numerosity_triads,2025.1.1,Linux x86_64,60.24096386,78.9359,81.9699,right,2.49,,0,32,32,32,1,32,25,100,200,s_25_r_4.png,s_100_r_2.png,s_200_r_2.png,,
,,1,GAD2,2025-08-14_18h21.14.836,mlds_experiment_numerosity_triads,2025.1.1,Linux x86_64,60.24096386,81.9716,83.5041,right,0.994,,0,33,33,33,1,33,25,75,100,s_25_r_9.png,s_75_r_2.png,s_100_r_8.png,,
,,1,GAD2,2025-08-14_18h21.14.836,mlds_experiment_numerosity_triads,2025.1.1,Linux x86_64,60.24096386,83.5056,86.2733,left,2.2234,,0,34,34,34,1,34,150,100,50,s_150_r_1.png,s_100_r_5.png,s_50_r_5.png,,
,,1,GAD2,2025-08-14_18h21.14.836,mlds_experiment_numerosity_triads,2025.1.1,Linux x86_64,60.24096386,86.2752,87.9749,right,1.1588,,0,35,35,35,1,35,200,25,10,s_200_r_5.png,s_25_r_10.png,s_10_r_5.png,,
,,1,GAD2,2025-08-14_18h21.14.836,mlds_experiment_numerosity_triads,2025.1.1,Linux x86_64,60.24096386,87.9763,89.3596,right,0.8389,,0,36,36,36,1,36,200,50,20,s_200_r_1.png,s_50_r_7.png,s_20_r_1.png,,
,,1,GAD2,2025-08-14_18h21.14.836,mlds_experiment_numerosity_triads,2025.1.1,Linux x86_64,60.24096386,89.3615,90.7111,left,0.8063,,0,37,37,37,1,37,100,75,10,s_100_r_9.png,s_75_r_7.png,s_10_r_4.png,,
,,1,GAD2,2025-08-14_18h21.14.836,mlds_experiment_numerosity_triads,2025.1.1,Linux x86_64,60.24096386,90.7121,93.0962,left,1.8413,,0,38,38,38,1,38,50,75,150,s_50_r_7.png,s_75_r_2.png,s_150_r_10.png,,
,,1,GAD2,2025-08-14_18h21.14.836,mlds_experiment_numerosity_triads,2025.1.1,Linux x86_64,60.24096386,93.0973,94.5973,right,0.9592,,0,39,39,39,1,39,20,75,100,s_20_r_7.png,s_75_r_9.png,s_100_r_7.png,,
,,1,GAD2,2025-08-14_18h21.14.836,mlds_experiment_numerosity_triads,2025.1.1,Linux x86_64,60.24096386,94.5985,95.8815,right,0.7395,,0,40,40,40,1,40,20,150,200,s_20_r_1.png,s_150_r_2.png,s_200_r_9.png,,
,,1,GAD2,2025-08-14_18h21.14.836,mlds_experiment_numerosity_triads,2025.1.1,Linux x86_64,60.24096386,95.883,97.867,left,1.4395,,0,41,41,41,1,41,50,100,200,s_50_r_10.png,s_100_r_9.png,s_200_r_5.png,,
,,1,GAD2,2025-08-14_18h21.14.836,mlds_experiment_numerosity_triads,2025.1.1,Linux x86_64,60.24096386,97.8681,100.469,left,2.0568,,0,42,42,42,1,42,10,20,75,s_10_r_7.png,s_20_r_7.png,s_75_r_2.png,,
,,1,GAD2,2025-08-14_18h21.14.836,mlds_experiment_numerosity_triads,2025.1.1,Linux x86_64,60.24096386,100.4705,102.1705,left,1.1554,,0,43,43,43,1,43,15,20,50,s_15_r_7.png,s_20_r_10.png,s_50_r_8.png,,
,,1,GAD2,2025-08-14_18h21.14.836,mlds_experiment_numerosity_triads,2025.1.1,Linux x86_64,60.24096386,102.1726,103.3548,right,0.6381,,0,44,44,44,1,44,75,25,20,s_75_r_8.png,s_25_r_8.png,s_20_r_8.png,,
,,1,GAD2,2025-08-14_18h21.14.836,mlds_experiment_numerosity_triads,2025.1.1,Linux x86_64,60.24096386,103.3566,104.9055,left,1.0058,,0,45,45,45,1,45,15,20,200,s_15_r_2.png,s_20_r_2.png,s_200_r_8.png,,
,,1,GAD2,2025-08-14_18h21.14.836,mlds_experiment_numerosity_triads,2025.1.1,Linux x86_64,60.24096386,104.9065,106.3405,left,0.9075,,0,46,46,46,1,46,10,20,150,s_10_r_8.png,s_20_r_10.png,s_150_r_4.png,,
,,1,GAD2,2025-08-14_18h21.14.836,mlds_experiment_numerosity_triads,2025.1.1,Linux x86_64,60.24096386,106.3415,108.6919,right,1.8107,,0,47,47,47,1,47,150,50,15,s_150_r_6.png,s_50_r_7.png,s_15_r_5.png,,
,,1,GAD2,2025-08-14_18h21.14.836,mlds_experiment_numerosity_triads,2025.1.1,Linux x86_64,60.24096386,108.693,109.8766,right,0.6386,,0,48,48,48,1,48,50,25,10,s_50_r_2.png,s_25_r_8.png,s_10_r_10.png,,
,,1,GAD2,2025-08-14_18h21.14.836,mlds_experiment_numerosity_triads,2025.1.1,Linux x86_64,60.24096386,109.8785,111.0942,right,0.6802,,0,49,49,49,1,49,10,150,200,s_10_r_4.png,s_150_r_6.png,s_200_r_4.png,,
,,1,GAD2,2025-08-14_18h21.14.836,mlds_experiment_numerosity_triads,2025.1.1,Linux x86_64,60.24096386,111.0958,114.3803,right,2.7639,,0,50,50,50,1,50,200,75,20,s_200_r_5.png,s_75_r_5.png,s_20_r_10.png,,
,,1,GAD2,2025-08-14_18h21.14.836,mlds_experiment_numerosity_triads,2025.1.1,Linux x86_64,60.24096386,114.3814,117.6326,right,2.7193,,0,51,51,51,1,51,150,25,10,s_150_r_2.png,s_25_r_4.png,s_10_r_9.png,,
,,1,GAD2,2025-08-14_18h21.14.836,mlds_experiment_numerosity_triads,2025.1.1,Linux x86_64,60.24096386,117.6335,121.0523,left,2.8963,,0,52,52,52,1,52,25,75,150,s_25_r_5.png,s_75_r_2.png,s_150_r_9.png,,
,,1,GAD2,2025-08-14_18h21.14.836,mlds_experiment_numerosity_triads,2025.1.1,Linux x86_64,60.24096386,121.0531,125.7069,left,4.1159,,0,53,53,53,1,53,10,50,200,s_10_r_2.png,s_50_r_10.png,s_200_r_5.png,,
,,1,GAD2,2025-08-14_18h21.14.836,mlds_experiment_numerosity_triads,2025.1.1,Linux x86_64,60.24096386,125.7083,127.3918,left,1.1422,,0,54,54,54,1,54,10,20,50,s_10_r_8.png,s_20_r_7.png,s_50_r_4.png,,
,,1,GAD2,2025-08-14_18h21.14.836,mlds_experiment_numerosity_triads,2025.1.1,Linux x86_64,60.24096386,127.3934,132.112,right,4.1731,,0,55,55,55,1,55,200,75,15,s_200_r_10.png,s_75_r_10.png,s_15_r_1.png,,
,,1,GAD2,2025-08-14_18h21.14.836,mlds_experiment_numerosity_triads,2025.1.1,Linux x86_64,60.24096386,132.1127,133.8973,left,1.2588,,0,56,56,56,1,56,50,75,200,s_50_r_5.png,s_75_r_6.png,s_200_r_5.png,,
,,1,GAD2,2025-08-14_18h21.14.836,mlds_experiment_numerosity_triads,2025.1.1,Linux x86_64,60.24096386,133.8983,135.5319,right,1.091,,0,57,57,57,1,57,200,100,75,s_200_r_7.png,s_100_r_8.png,s_75_r_2.png,,
,,1,GAD2,2025-08-14_18h21.14.836,mlds_experiment_numerosity_triads,2025.1.1,Linux x86_64,60.24096386,135.5336,137.2,left,1.1253,,0,58,58,58,1,58,10,25,75,s_10_r_9.png,s_25_r_7.png,s_75_r_6.png,,
,,1,GAD2,2025-08-14_18h21.14.836,mlds_experiment_numerosity_triads,2025.1.1,Linux x86_64,60.24096386,137.2016,139.0679,right,1.329,,0,59,59,59,1,59,150,75,20,s_150_r_10.png,s_75_r_8.png,s_20_r_6.png,,
,,1,GAD2,2025-08-14_18h21.14.836,mlds_experiment_numerosity_triads,2025.1.1,Linux x86_64,60.24096386,139.069,140.9867,left,1.3799,,0,60,60,60,1,60,150,100,25,s_150_r_9.png,s_100_r_7.png,s_25_r_8.png,,
,,1,GAD2,2025-08-14_18h21.14.836,mlds_experiment_numerosity_triads,2025.1.1,Linux x86_64,60.24096386,140.9882,142.7044,right,1.1778,,0,61,61,61,1,61,10,50,100,s_10_r_3.png,s_50_r_9.png,s_100_r_5.png,,
,,1,GAD2,2025-08-14_18h21.14.836,mlds_experiment_numerosity_triads,2025.1.1,Linux x86_64,60.24096386,142.7061,144.7062,left,1.4578,,0,62,62,62,1,62,20,25,50,s_20_r_10.png,s_25_r_9.png,s_50_r_4.png,,
,,1,GAD2,2025-08-14_18h21.14.836,mlds_experiment_numerosity_triads,2025.1.1,Linux x86_64,60.24096386,144.7079,146.4412,right,1.1996,,0,63,63,63,1,63,15,25,50,s_15_r_2.png,s_25_r_9.png,s_50_r_4.png,,
,,1,GAD2,2025-08-14_18h21.14.836,mlds_experiment_numerosity_triads,2025.1.1,Linux x86_64,60.24096386,146.4423,147.8593,right,0.8793,,0,64,64,64,1,64,200,50,25,s_200_r_10.png,s_50_r_8.png,s_25_r_10.png,,
,,1,GAD2,2025-08-14_18h21.14.836,mlds_experiment_numerosity_triads,2025.1.1,Linux x86_64,60.24096386,147.8611,149.426,left,1.0338,,0,65,65,65,1,65,15,25,200,s_15_r_10.png,s_25_r_3.png,s_200_r_3.png,,
,,1,GAD2,2025-08-14_18h21.14.836,mlds_experiment_numerosity_triads,2025.1.1,Linux x86_64,60.24096386,149.4268,150.6441,left,0.695,,0,66,66,66,1,66,10,15,150,s_10_r_2.png,s_15_r_10.png,s_150_r_8.png,,
,,1,GAD2,2025-08-14_18h21.14.836,mlds_experiment_numerosity_triads,2025.1.1,Linux x86_64,60.24096386,150.6449,152.5297,right,1.3563,,0,67,67,67,1,67,200,75,25,s_200_r_4.png,s_75_r_9.png,s_25_r_6.png,,
,,1,GAD2,2025-08-14_18h21.14.836,mlds_experiment_numerosity_triads,2025.1.1,Linux x86_64,60.24096386,152.5319,153.6802,right,0.6088,,0,68,68,68,1,68,150,20,15,s_150_r_9.png,s_20_r_7.png,s_15_r_2.png,,
,,1,GAD2,2025-08-14_18h21.14.836,mlds_experiment_numerosity_triads,2025.1.1,Linux x86_64,60.24096386,153.6812,155.2485,right,1.0227,,0,69,69,69,1,69,75,25,15,s_75_r_8.png,s_25_r_9.png,s_15_r_8.png,,
,,1,GAD2,2025-08-14_18h21.14.836,mlds_experiment_numerosity_triads,2025.1.1,Linux x86_64,60.24096386,155.25,158.1842,right,2.3913,,0,70,70,70,1,70,100,150,200,s_100_r_4.png,s_150_r_2.png,s_200_r_9.png,,
,,1,GAD2,2025-08-14_18h21.14.836,mlds_experiment_numerosity_triads,2025.1.1,Linux x86_64,60.24096386,158.1855,159.9857,right,1.264,,0,71,71,71,1,71,25,50,75,s_25_r_8.png,s_50_r_4.png,s_75_r_3.png,,
,,1,GAD2,2025-08-14_18h21.14.836,mlds_experiment_numerosity_triads,2025.1.1,Linux x86_64,60.24096386,159.9873,162.0042,right,1.4793,,0,72,72,72,1,72,150,100,75,s_150_r_4.png,s_100_r_8.png,s_75_r_3.png,,
,,1,GAD2,2025-08-14_18h21.14.836,mlds_experiment_numerosity_triads,2025.1.1,Linux x86_64,60.24096386,162.0052,163.3554,left,0.8125,,0,73,73,73,1,73,15,25,150,s_15_r_10.png,s_25_r_7.png,s_150_r_2.png,,
,,1,GAD2,2025-08-14_18h21.14.836,mlds_experiment_numerosity_triads,2025.1.1,Linux x86_64,60.24096386,163.3569,165.04,right,1.1419,,0,74,74,74,1,74,50,150,200,s_50_r_3.png,s_150_r_9.png,s_200_r_5.png,,
,,1,GAD2,2025-08-14_18h21.14.836,mlds_experiment_numerosity_triads,2025.1.1,Linux x86_64,60.24096386,165.0418,166.4915,left,0.913,,0,75,75,75,1,75,10,15,75,s_10_r_9.png,s_15_r_6.png,s_75_r_10.png,,
,,1,GAD2,2025-08-14_18h21.14.836,mlds_experiment_numerosity_triads,2025.1.1,Linux x86_64,60.24096386,166.493,167.6924,left,0.6545,,0,76,76,76,1,76,25,50,100,s_25_r_4.png,s_50_r_4.png,s_100_r_3.png,,
,,1,GAD2,2025-08-14_18h21.14.836,mlds_experiment_numerosity_triads,2025.1.1,Linux x86_64,60.24096386,167.694,169.1767,right,0.9428,,0,77,77,77,1,77,20,50,75,s_20_r_2.png,s_50_r_7.png,s_75_r_5.png,,
,,1,GAD2,2025-08-14_18h21.14.836,mlds_experiment_numerosity_triads,2025.1.1,Linux x86_64,60.24096386,169.1782,171.6619,right,1.9543,,0,78,78,78,1,78,150,75,15,s_150_r_5.png,s_75_r_8.png,s_15_r_5.png,,
,,1,GAD2,2025-08-14_18h21.14.836,mlds_experiment_numerosity_triads,2025.1.1,Linux x86_64,60.24096386,171.6622,176.1826,left,4.0006,,0,79,79,79,1,79,200,100,10,s_200_r_7.png,s_100_r_7.png,s_10_r_10.png,,
,,1,GAD2,2025-08-14_18h21.14.836,mlds_experiment_numerosity_triads,2025.1.1,Linux x86_64,60.24096386,176.1841,177.9679,left,1.2393,,0,80,80,80,1,80,25,50,150,s_25_r_2.png,s_50_r_1.png,s_150_r_7.png,,
,,1,GAD2,2025-08-14_18h21.14.836,mlds_experiment_numerosity_triads,2025.1.1,Linux x86_64,60.24096386,177.9695,179.8687,right,1.3547,,0,81,81,81,1,81,25,150,200,s_25_r_4.png,s_150_r_3.png,s_200_r_3.png,,
,,1,GAD2,2025-08-14_18h21.14.836,mlds_experiment_numerosity_triads,2025.1.1,Linux x86_64,60.24096386,179.8694,181.5873,right,1.1836,,0,82,82,82,1,82,20,100,150,s_20_r_8.png,s_100_r_10.png,s_150_r_9.png,,
,,1,GAD2,2025-08-14_18h21.14.836,mlds_experiment_numerosity_triads,2025.1.1,Linux x86_64,60.24096386,181.5893,183.0052,right,0.8833,,0,83,83,83,1,83,100,25,15,s_100_r_5.png,s_25_r_9.png,s_15_r_7.png,,
