instruct.started,instruct.stopped,session,participant,date,expName,psychopyVersion,OS,frameRate,trial.started,trial.stopped,resp.keys,resp.rt,resp.duration,trials.thisRepN,trials.thisTrialN,trials.thisN,trials.thisIndex,trials.ran,trial,s1,s2,s3,im1,im2,im3,thanks.started,thanks.stopped
0.0003,1.3147,1,GA,2025-08-18_16h49.21.233,mlds_experiment_numerosity_triads,2025.1.1,Linux x86_64,59.88023952,,,,,,,,,,,,,,,,,,,
,,1,GA,2025-08-18_16h49.21.233,mlds_experiment_numerosity_triads,2025.1.1,Linux x86_64,59.88023952,1.338,4.8157,right,2.9365,,0,0,0,0,1,0,60,20,5,s_60_r_2.png,s_20_r_7.png,s_5_r_6.png,,
,,1,GA,2025-08-18_16h49.21.233,mlds_experiment_numerosity_triads,2025.1.1,Linux x86_64,59.88023952,4.8174,7.2509,left,1.8894,,0,1,1,1,1,1,50,33,10,s_50_r_2.png,s_33_r_8.png,s_10_r_3.png,,
,,1,GA,2025-08-18_16h49.21.233,mlds_experiment_numerosity_triads,2025.1.1,Linux x86_64,59.88023952,7.2523,8.5352,right,0.7378,,0,2,2,2,1,2,60,10,5,s_60_r_5.png,s_10_r_8.png,s_5_r_2.png,,
,,1,GA,2025-08-18_16h49.21.233,mlds_experiment_numerosity_triads,2025.1.1,Linux x86_64,59.88023952,8.5371,10.5039,right,1.4238,,0,3,3,3,1,3,10,33,60,s_10_r_3.png,s_33_r_8.png,s_60_r_9.png,,
,,1,GA,2025-08-18_16h49.21.233,mlds_experiment_numerosity_triads,2025.1.1,Linux x86_64,59.88023952,10.5055,11.7378,right,0.6933,,0,4,4,4,1,4,5,33,60,s_5_r_2.png,s_33_r_4.png,s_60_r_10.png,,
,,1,GA,2025-08-18_16h49.21.233,mlds_experiment_numerosity_triads,2025.1.1,Linux x86_64,59.88023952,11.7395,14.8738,left,2.5996,,0,5,5,5,1,5,10,15,33,s_10_r_10.png,s_15_r_7.png,s_33_r_8.png,,
,,1,GA,2025-08-18_16h49.21.233,mlds_experiment_numerosity_triads,2025.1.1,Linux x86_64,59.88023952,14.8748,16.5755,right,1.1728,,0,6,6,6,1,6,20,15,5,s_20_r_7.png,s_15_r_8.png,s_5_r_7.png,,
,,1,GA,2025-08-18_16h49.21.233,mlds_experiment_numerosity_triads,2025.1.1,Linux x86_64,59.88023952,16.5775,17.8765,right,0.7562,,0,7,7,7,1,7,5,33,50,s_5_r_4.png,s_33_r_2.png,s_50_r_1.png,,
,,1,GA,2025-08-18_16h49.21.233,mlds_experiment_numerosity_triads,2025.1.1,Linux x86_64,59.88023952,17.8775,22.4474,left,4.0327,,0,8,8,8,1,8,33,25,5,s_33_r_1.png,s_25_r_9.png,s_5_r_9.png,,
,,1,GA,2025-08-18_16h49.21.233,mlds_experiment_numerosity_triads,2025.1.1,Linux x86_64,59.88023952,22.4488,27.268,right,4.2747,,0,9,9,9,1,9,15,20,40,s_15_r_10.png,s_20_r_4.png,s_40_r_5.png,,
,,1,GA,2025-08-18_16h49.21.233,mlds_experiment_numerosity_triads,2025.1.1,Linux x86_64,59.88023952,27.2696,29.4027,right,1.6075,,0,10,10,10,1,10,40,20,10,s_40_r_3.png,s_20_r_10.png,s_10_r_10.png,,
,,1,GA,2025-08-18_16h49.21.233,mlds_experiment_numerosity_triads,2025.1.1,Linux x86_64,59.88023952,29.4041,31.2206,left,1.2927,,0,11,11,11,1,11,50,25,5,s_50_r_5.png,s_25_r_10.png,s_5_r_3.png,,
,,1,GA,2025-08-18_16h49.21.233,mlds_experiment_numerosity_triads,2025.1.1,Linux x86_64,59.88023952,31.2221,35.0074,right,3.2589,,0,12,12,12,1,12,20,33,40,s_20_r_9.png,s_33_r_3.png,s_40_r_5.png,,
,,1,GA,2025-08-18_16h49.21.233,mlds_experiment_numerosity_triads,2025.1.1,Linux x86_64,59.88023952,35.0084,36.8428,right,1.2911,,0,13,13,13,1,13,10,33,40,s_10_r_3.png,s_33_r_3.png,s_40_r_6.png,,
,,1,GA,2025-08-18_16h49.21.233,mlds_experiment_numerosity_triads,2025.1.1,Linux x86_64,59.88023952,36.8445,39.1112,left,1.7226,,0,14,14,14,1,14,60,40,25,s_60_r_6.png,s_40_r_4.png,s_25_r_5.png,,
,,1,GA,2025-08-18_16h49.21.233,mlds_experiment_numerosity_triads,2025.1.1,Linux x86_64,59.88023952,39.1126,40.629,right,0.976,,0,15,15,15,1,15,5,10,15,s_5_r_7.png,s_10_r_3.png,s_15_r_10.png,,
,,1,GA,2025-08-18_16h49.21.233,mlds_experiment_numerosity_triads,2025.1.1,Linux x86_64,59.88023952,40.6301,42.8477,right,1.6748,,0,16,16,16,1,16,25,40,50,s_25_r_9.png,s_40_r_1.png,s_50_r_6.png,,
,,1,GA,2025-08-18_16h49.21.233,mlds_experiment_numerosity_triads,2025.1.1,Linux x86_64,59.88023952,42.8488,45.7001,left,2.3125,,0,17,17,17,1,17,5,10,33,s_5_r_7.png,s_10_r_4.png,s_33_r_2.png,,
,,1,GA,2025-08-18_16h49.21.233,mlds_experiment_numerosity_triads,2025.1.1,Linux x86_64,59.88023952,45.702,48.6692,right,2.4231,,0,18,18,18,1,18,33,50,60,s_33_r_10.png,s_50_r_4.png,s_60_r_9.png,,
,,1,GA,2025-08-18_16h49.21.233,mlds_experiment_numerosity_triads,2025.1.1,Linux x86_64,59.88023952,48.6709,50.1541,left,0.9386,,0,19,19,19,1,19,60,33,15,s_60_r_5.png,s_33_r_5.png,s_15_r_2.png,,
,,1,GA,2025-08-18_16h49.21.233,mlds_experiment_numerosity_triads,2025.1.1,Linux x86_64,59.88023952,50.1556,52.1055,left,1.4102,,0,20,20,20,1,20,40,33,25,s_40_r_4.png,s_33_r_10.png,s_25_r_3.png,,
,,1,GA,2025-08-18_16h49.21.233,mlds_experiment_numerosity_triads,2025.1.1,Linux x86_64,59.88023952,52.1069,53.5568,right,0.9076,,0,21,21,21,1,21,5,15,25,s_5_r_5.png,s_15_r_7.png,s_25_r_8.png,,
,,1,GA,2025-08-18_16h49.21.233,mlds_experiment_numerosity_triads,2025.1.1,Linux x86_64,59.88023952,53.5582,55.0415,left,0.9424,,0,22,22,22,1,22,60,50,5,s_60_r_4.png,s_50_r_2.png,s_5_r_3.png,,
,,1,GA,2025-08-18_16h49.21.233,mlds_experiment_numerosity_triads,2025.1.1,Linux x86_64,59.88023952,55.0436,57.3425,left,1.7569,,0,23,23,23,1,23,60,25,15,s_60_r_1.png,s_25_r_10.png,s_15_r_9.png,,
,,1,GA,2025-08-18_16h49.21.233,mlds_experiment_numerosity_triads,2025.1.1,Linux x86_64,59.88023952,57.3436,59.878,left,2.0066,,0,24,24,24,1,24,60,40,33,s_60_r_7.png,s_40_r_5.png,s_33_r_1.png,,
,,1,GA,2025-08-18_16h49.21.233,mlds_experiment_numerosity_triads,2025.1.1,Linux x86_64,59.88023952,59.8795,61.5134,right,1.0892,,0,25,25,25,1,25,20,25,60,s_20_r_2.png,s_25_r_3.png,s_60_r_8.png,,
,,1,GA,2025-08-18_16h49.21.233,mlds_experiment_numerosity_triads,2025.1.1,Linux x86_64,59.88023952,61.5147,63.882,right,1.8251,,0,26,26,26,1,26,5,10,20,s_5_r_7.png,s_10_r_3.png,s_20_r_10.png,,
,,1,GA,2025-08-18_16h49.21.233,mlds_experiment_numerosity_triads,2025.1.1,Linux x86_64,59.88023952,63.8837,65.8499,right,1.4241,,0,27,27,27,1,27,50,20,5,s_50_r_10.png,s_20_r_7.png,s_5_r_7.png,,
,,1,GA,2025-08-18_16h49.21.233,mlds_experiment_numerosity_triads,2025.1.1,Linux x86_64,59.88023952,65.8509,68.0357,left,1.6395,,0,28,28,28,1,28,60,33,25,s_60_r_5.png,s_33_r_9.png,s_25_r_6.png,,
,,1,GA,2025-08-18_16h49.21.233,mlds_experiment_numerosity_triads,2025.1.1,Linux x86_64,59.88023952,68.0375,69.7369,right,1.1593,,0,29,29,29,1,29,33,15,5,s_33_r_9.png,s_15_r_8.png,s_5_r_2.png,,
,,1,GA,2025-08-18_16h49.21.233,mlds_experiment_numerosity_triads,2025.1.1,Linux x86_64,59.88023952,69.7384,71.5554,right,1.2795,,0,30,30,30,1,30,10,25,40,s_10_r_9.png,s_25_r_5.png,s_40_r_1.png,,
,,1,GA,2025-08-18_16h49.21.233,mlds_experiment_numerosity_triads,2025.1.1,Linux x86_64,59.88023952,71.5569,73.0233,left,0.9245,,0,31,31,31,1,31,40,33,5,s_40_r_1.png,s_33_r_4.png,s_5_r_4.png,,
,,1,GA,2025-08-18_16h49.21.233,mlds_experiment_numerosity_triads,2025.1.1,Linux x86_64,59.88023952,73.0251,74.391,left,0.8255,,0,32,32,32,1,32,60,50,20,s_60_r_3.png,s_50_r_10.png,s_20_r_10.png,,
,,1,GA,2025-08-18_16h49.21.233,mlds_experiment_numerosity_triads,2025.1.1,Linux x86_64,59.88023952,74.3919,75.6081,right,0.6777,,0,33,33,33,1,33,10,40,60,s_10_r_8.png,s_40_r_2.png,s_60_r_4.png,,
,,1,GA,2025-08-18_16h49.21.233,mlds_experiment_numerosity_triads,2025.1.1,Linux x86_64,59.88023952,75.6089,76.876,right,0.7417,,0,34,34,34,1,34,15,20,60,s_15_r_8.png,s_20_r_4.png,s_60_r_7.png,,
,,1,GA,2025-08-18_16h49.21.233,mlds_experiment_numerosity_triads,2025.1.1,Linux x86_64,59.88023952,76.8777,79.3119,left,1.8924,,0,35,35,35,1,35,33,25,20,s_33_r_7.png,s_25_r_4.png,s_20_r_3.png,,
,,1,GA,2025-08-18_16h49.21.233,mlds_experiment_numerosity_triads,2025.1.1,Linux x86_64,59.88023952,79.3129,80.9795,left,1.1222,,0,36,36,36,1,36,60,40,20,s_60_r_5.png,s_40_r_6.png,s_20_r_1.png,,
,,1,GA,2025-08-18_16h49.21.233,mlds_experiment_numerosity_triads,2025.1.1,Linux x86_64,59.88023952,80.9811,82.1974,right,0.6714,,0,37,37,37,1,37,10,40,50,s_10_r_7.png,s_40_r_8.png,s_50_r_9.png,,
,,1,GA,2025-08-18_16h49.21.233,mlds_experiment_numerosity_triads,2025.1.1,Linux x86_64,59.88023952,82.199,83.3985,right,0.6625,,0,38,38,38,1,38,10,20,33,s_10_r_1.png,s_20_r_10.png,s_33_r_8.png,,
,,1,GA,2025-08-18_16h49.21.233,mlds_experiment_numerosity_triads,2025.1.1,Linux x86_64,59.88023952,83.3996,84.7498,left,0.8031,,0,39,39,39,1,39,33,25,10,s_33_r_7.png,s_25_r_10.png,s_10_r_7.png,,
,,1,GA,2025-08-18_16h49.21.233,mlds_experiment_numerosity_triads,2025.1.1,Linux x86_64,59.88023952,84.7512,86.9181,right,1.6226,,0,40,40,40,1,40,50,10,5,s_50_r_2.png,s_10_r_10.png,s_5_r_7.png,,
,,1,GA,2025-08-18_16h49.21.233,mlds_experiment_numerosity_triads,2025.1.1,Linux x86_64,59.88023952,86.9192,88.0857,right,0.6229,,0,41,41,41,1,41,5,40,50,s_5_r_7.png,s_40_r_9.png,s_50_r_5.png,,
,,1,GA,2025-08-18_16h49.21.233,mlds_experiment_numerosity_triads,2025.1.1,Linux x86_64,59.88023952,88.0868,90.6208,left,1.9913,,0,42,42,42,1,42,60,33,20,s_60_r_8.png,s_33_r_9.png,s_20_r_9.png,,
,,1,GA,2025-08-18_16h49.21.233,mlds_experiment_numerosity_triads,2025.1.1,Linux x86_64,59.88023952,90.6214,91.8218,right,0.6711,,0,43,43,43,1,43,15,25,33,s_15_r_8.png,s_25_r_9.png,s_33_r_4.png,,
,,1,GA,2025-08-18_16h49.21.233,mlds_experiment_numerosity_triads,2025.1.1,Linux x86_64,59.88023952,91.8235,94.9247,right,2.5678,,0,44,44,44,1,44,5,10,40,s_5_r_10.png,s_10_r_1.png,s_40_r_7.png,,
,,1,GA,2025-08-18_16h49.21.233,mlds_experiment_numerosity_triads,2025.1.1,Linux x86_64,59.88023952,94.9258,96.9762,right,1.5075,,0,45,45,45,1,45,20,15,10,s_20_r_1.png,s_15_r_7.png,s_10_r_6.png,,
,,1,GA,2025-08-18_16h49.21.233,mlds_experiment_numerosity_triads,2025.1.1,Linux x86_64,59.88023952,96.9773,98.5441,right,1.0346,,0,46,46,46,1,46,10,20,25,s_10_r_9.png,s_20_r_3.png,s_25_r_10.png,,
,,1,GA,2025-08-18_16h49.21.233,mlds_experiment_numerosity_triads,2025.1.1,Linux x86_64,59.88023952,98.5459,100.2296,left,1.1549,,0,47,47,47,1,47,50,40,20,s_50_r_3.png,s_40_r_4.png,s_20_r_7.png,,
,,1,GA,2025-08-18_16h49.21.233,mlds_experiment_numerosity_triads,2025.1.1,Linux x86_64,59.88023952,100.2313,102.1312,left,1.3549,,0,48,48,48,1,48,40,25,5,s_40_r_10.png,s_25_r_3.png,s_5_r_4.png,,
,,1,GA,2025-08-18_16h49.21.233,mlds_experiment_numerosity_triads,2025.1.1,Linux x86_64,59.88023952,102.1328,103.8992,right,1.2292,,0,49,49,49,1,49,20,25,50,s_20_r_1.png,s_25_r_10.png,s_50_r_6.png,,
,,1,GA,2025-08-18_16h49.21.233,mlds_experiment_numerosity_triads,2025.1.1,Linux x86_64,59.88023952,103.9009,105.7501,left,1.3119,,0,50,50,50,1,50,60,40,15,s_60_r_3.png,s_40_r_8.png,s_15_r_9.png,,
,,1,GA,2025-08-18_16h49.21.233,mlds_experiment_numerosity_triads,2025.1.1,Linux x86_64,59.88023952,105.751,109.137,left,2.8597,,0,51,51,51,1,51,10,15,60,s_10_r_9.png,s_15_r_5.png,s_60_r_8.png,,
,,1,GA,2025-08-18_16h49.21.233,mlds_experiment_numerosity_triads,2025.1.1,Linux x86_64,59.88023952,109.1386,110.8217,left,1.1461,,0,52,52,52,1,52,50,40,33,s_50_r_3.png,s_40_r_8.png,s_33_r_10.png,,
,,1,GA,2025-08-18_16h49.21.233,mlds_experiment_numerosity_triads,2025.1.1,Linux x86_64,59.88023952,110.8231,113.9238,left,2.5538,,0,53,53,53,1,53,25,50,60,s_25_r_7.png,s_50_r_10.png,s_60_r_2.png,,
,,1,GA,2025-08-18_16h49.21.233,mlds_experiment_numerosity_triads,2025.1.1,Linux x86_64,59.88023952,113.9246,115.4252,right,0.9554,,0,54,54,54,1,54,50,25,15,s_50_r_3.png,s_25_r_8.png,s_15_r_1.png,,
,,1,GA,2025-08-18_16h49.21.233,mlds_experiment_numerosity_triads,2025.1.1,Linux x86_64,59.88023952,115.426,116.8442,right,0.9022,,0,55,55,55,1,55,60,15,5,s_60_r_5.png,s_15_r_9.png,s_5_r_3.png,,
,,1,GA,2025-08-18_16h49.21.233,mlds_experiment_numerosity_triads,2025.1.1,Linux x86_64,59.88023952,116.8462,118.4444,right,1.0559,,0,56,56,56,1,56,60,20,10,s_60_r_1.png,s_20_r_7.png,s_10_r_2.png,,
,,1,GA,2025-08-18_16h49.21.233,mlds_experiment_numerosity_triads,2025.1.1,Linux x86_64,59.88023952,118.4454,120.0627,right,1.0745,,0,57,57,57,1,57,40,15,5,s_40_r_7.png,s_15_r_1.png,s_5_r_1.png,,
,,1,GA,2025-08-18_16h49.21.233,mlds_experiment_numerosity_triads,2025.1.1,Linux x86_64,59.88023952,120.0636,121.3466,right,0.7392,,0,58,58,58,1,58,10,50,60,s_10_r_6.png,s_50_r_3.png,s_60_r_7.png,,
,,1,GA,2025-08-18_16h49.21.233,mlds_experiment_numerosity_triads,2025.1.1,Linux x86_64,59.88023952,121.3477,124.1997,right,2.3106,,0,59,59,59,1,59,5,20,33,s_5_r_6.png,s_20_r_3.png,s_33_r_6.png,,
,,1,GA,2025-08-18_16h49.21.233,mlds_experiment_numerosity_triads,2025.1.1,Linux x86_64,59.88023952,124.2011,129.8208,left,5.0846,,0,60,60,60,1,60,25,33,50,s_25_r_4.png,s_33_r_5.png,s_50_r_1.png,,
,,1,GA,2025-08-18_16h49.21.233,mlds_experiment_numerosity_triads,2025.1.1,Linux x86_64,59.88023952,129.8221,131.856,left,1.4972,,0,61,61,61,1,61,50,33,15,s_50_r_8.png,s_33_r_5.png,s_15_r_3.png,,
,,1,GA,2025-08-18_16h49.21.233,mlds_experiment_numerosity_triads,2025.1.1,Linux x86_64,59.88023952,131.8577,133.19,right,0.7933,,0,62,62,62,1,62,15,50,60,s_15_r_10.png,s_50_r_2.png,s_60_r_8.png,,
,,1,GA,2025-08-18_16h49.21.233,mlds_experiment_numerosity_triads,2025.1.1,Linux x86_64,59.88023952,133.1908,135.0081,right,1.2941,,0,63,63,63,1,63,40,25,15,s_40_r_7.png,s_25_r_1.png,s_15_r_9.png,,
,,1,GA,2025-08-18_16h49.21.233,mlds_experiment_numerosity_triads,2025.1.1,Linux x86_64,59.88023952,135.0097,136.7098,right,1.1771,,0,64,64,64,1,64,20,33,50,s_20_r_2.png,s_33_r_4.png,s_50_r_10.png,,
,,1,GA,2025-08-18_16h49.21.233,mlds_experiment_numerosity_triads,2025.1.1,Linux x86_64,59.88023952,136.7114,138.1448,left,0.8921,,0,65,65,65,1,65,60,40,5,s_60_r_3.png,s_40_r_1.png,s_5_r_6.png,,
,,1,GA,2025-08-18_16h49.21.233,mlds_experiment_numerosity_triads,2025.1.1,Linux x86_64,59.88023952,138.1466,140.2131,right,1.5286,,0,66,66,66,1,66,5,20,25,s_5_r_7.png,s_20_r_4.png,s_25_r_8.png,,
,,1,GA,2025-08-18_16h49.21.233,mlds_experiment_numerosity_triads,2025.1.1,Linux x86_64,59.88023952,140.2141,142.5149,right,1.7572,,0,67,67,67,1,67,60,25,5,s_60_r_9.png,s_25_r_8.png,s_5_r_1.png,,
,,1,GA,2025-08-18_16h49.21.233,mlds_experiment_numerosity_triads,2025.1.1,Linux x86_64,59.88023952,142.5158,144.8832,left,1.8211,,0,68,68,68,1,68,50,25,10,s_50_r_2.png,s_25_r_5.png,s_10_r_4.png,,
,,1,GA,2025-08-18_16h49.21.233,mlds_experiment_numerosity_triads,2025.1.1,Linux x86_64,59.88023952,144.8839,146.2181,right,0.7977,,0,69,69,69,1,69,25,10,5,s_25_r_9.png,s_10_r_9.png,s_5_r_5.png,,
,,1,GA,2025-08-18_16h49.21.233,mlds_experiment_numerosity_triads,2025.1.1,Linux x86_64,59.88023952,146.2197,148.2696,right,1.5235,,0,70,70,70,1,70,10,25,60,s_10_r_5.png,s_25_r_9.png,s_60_r_9.png,,
,,1,GA,2025-08-18_16h49.21.233,mlds_experiment_numerosity_triads,2025.1.1,Linux x86_64,59.88023952,148.2709,150.1382,right,1.3365,,0,71,71,71,1,71,25,15,10,s_25_r_1.png,s_15_r_2.png,s_10_r_8.png,,
,,1,GA,2025-08-18_16h49.21.233,mlds_experiment_numerosity_triads,2025.1.1,Linux x86_64,59.88023952,150.1396,151.4889,left,0.8052,,0,72,72,72,1,72,50,40,15,s_50_r_2.png,s_40_r_7.png,s_15_r_5.png,,
,,1,GA,2025-08-18_16h49.21.233,mlds_experiment_numerosity_triads,2025.1.1,Linux x86_64,59.88023952,151.4906,153.4241,left,1.3938,,0,73,73,73,1,73,40,25,20,s_40_r_5.png,s_25_r_6.png,s_20_r_5.png,,
,,1,GA,2025-08-18_16h49.21.233,mlds_experiment_numerosity_triads,2025.1.1,Linux x86_64,59.88023952,153.4251,156.6769,left,2.7164,,0,74,74,74,1,74,40,20,5,s_40_r_2.png,s_20_r_5.png,s_5_r_7.png,,
,,1,GA,2025-08-18_16h49.21.233,mlds_experiment_numerosity_triads,2025.1.1,Linux x86_64,59.88023952,156.6783,158.5451,right,1.3457,,0,75,75,75,1,75,15,20,25,s_15_r_8.png,s_20_r_5.png,s_25_r_2.png,,
,,1,GA,2025-08-18_16h49.21.233,mlds_experiment_numerosity_triads,2025.1.1,Linux x86_64,59.88023952,158.5466,160.0631,left,0.9768,,0,76,76,76,1,76,15,20,33,s_15_r_2.png,s_20_r_3.png,s_33_r_7.png,,
,,1,GA,2025-08-18_16h49.21.233,mlds_experiment_numerosity_triads,2025.1.1,Linux x86_64,59.88023952,160.0646,162.0151,left,1.4106,,0,77,77,77,1,77,10,15,40,s_10_r_10.png,s_15_r_8.png,s_40_r_5.png,,
,,1,GA,2025-08-18_16h49.21.233,mlds_experiment_numerosity_triads,2025.1.1,Linux x86_64,59.88023952,162.017,163.8329,right,1.2726,,0,78,78,78,1,78,10,15,50,s_10_r_1.png,s_15_r_10.png,s_50_r_8.png,,
,,1,GA,2025-08-18_16h49.21.233,mlds_experiment_numerosity_triads,2025.1.1,Linux x86_64,59.88023952,163.834,165.4675,right,1.091,,0,79,79,79,1,79,50,20,15,s_50_r_6.png,s_20_r_5.png,s_15_r_8.png,,
,,1,GA,2025-08-18_16h49.21.233,mlds_experiment_numerosity_triads,2025.1.1,Linux x86_64,59.88023952,165.4688,167.9534,left,1.9614,,0,80,80,80,1,80,40,33,15,s_40_r_9.png,s_33_r_6.png,s_15_r_7.png,,
,,1,GA,2025-08-18_16h49.21.233,mlds_experiment_numerosity_triads,2025.1.1,Linux x86_64,59.88023952,167.955,169.9215,right,1.425,,0,81,81,81,1,81,40,50,60,s_40_r_7.png,s_50_r_5.png,s_60_r_8.png,,
,,1,GA,2025-08-18_16h49.21.233,mlds_experiment_numerosity_triads,2025.1.1,Linux x86_64,59.88023952,169.9233,171.1556,right,0.6904,,0,82,82,82,1,82,10,20,50,s_10_r_7.png,s_20_r_1.png,s_50_r_7.png,,
,,1,GA,2025-08-18_16h49.21.233,mlds_experiment_numerosity_triads,2025.1.1,Linux x86_64,59.88023952,171.157,172.524,right,0.8281,,0,83,83,83,1,83,50,15,5,s_50_r_8.png,s_15_r_4.png,s_5_r_10.png,,
,,1,GA,2025-08-18_16h49.21.233,mlds_experiment_numerosity_triads,2025.1.1,Linux x86_64,59.88023952,,,,,,,,,,,,,,,,,,172.525,174.5249
0.0001,1.1949,1,GA,2025-08-18_16h54.23.722,mlds_experiment_numerosity_triads,2025.1.1,Linux x86_64,59.88023952,,,,,,,,,,,,,,,,,,,
,,1,GA,2025-08-18_16h54.23.722,mlds_experiment_numerosity_triads,2025.1.1,Linux x86_64,59.88023952,1.2069,3.0966,right,1.3492,,0,0,0,0,1,0,60,20,5,s_60_r_2.png,s_20_r_7.png,s_5_r_6.png,,
,,1,GA,2025-08-18_16h54.23.722,mlds_experiment_numerosity_triads,2025.1.1,Linux x86_64,59.88023952,3.0978,4.9483,left,1.3059,,0,1,1,1,1,1,50,33,10,s_50_r_2.png,s_33_r_8.png,s_10_r_3.png,,
,,1,GA,2025-08-18_16h54.23.722,mlds_experiment_numerosity_triads,2025.1.1,Linux x86_64,59.88023952,4.95,6.199,right,0.713,,0,2,2,2,1,2,60,10,5,s_60_r_5.png,s_10_r_8.png,s_5_r_2.png,,
,,1,GA,2025-08-18_16h54.23.722,mlds_experiment_numerosity_triads,2025.1.1,Linux x86_64,59.88023952,6.2005,8.1165,right,1.3796,,0,3,3,3,1,3,10,33,60,s_10_r_3.png,s_33_r_8.png,s_60_r_9.png,,
,,1,GA,2025-08-18_16h54.23.722,mlds_experiment_numerosity_triads,2025.1.1,Linux x86_64,59.88023952,8.1172,9.302,right,0.6563,,0,4,4,4,1,4,5,33,60,s_5_r_2.png,s_33_r_4.png,s_60_r_10.png,,
,,1,GA,2025-08-18_16h54.23.722,mlds_experiment_numerosity_triads,2025.1.1,Linux x86_64,59.88023952,9.3035,10.8202,right,0.976,,0,5,5,5,1,5,10,15,33,s_10_r_10.png,s_15_r_7.png,s_33_r_8.png,,
,,1,GA,2025-08-18_16h54.23.722,mlds_experiment_numerosity_triads,2025.1.1,Linux x86_64,59.88023952,10.8216,12.9883,right,1.628,,0,6,6,6,1,6,20,15,5,s_20_r_7.png,s_15_r_8.png,s_5_r_7.png,,
,,1,GA,2025-08-18_16h54.23.722,mlds_experiment_numerosity_triads,2025.1.1,Linux x86_64,59.88023952,12.99,14.2058,right,0.6875,,0,7,7,7,1,7,5,33,50,s_5_r_4.png,s_33_r_2.png,s_50_r_1.png,,
,,1,GA,2025-08-18_16h54.23.722,mlds_experiment_numerosity_triads,2025.1.1,Linux x86_64,59.88023952,14.2073,16.2078,left,1.456,,0,8,8,8,1,8,33,25,5,s_33_r_1.png,s_25_r_9.png,s_5_r_9.png,,
,,1,GA,2025-08-18_16h54.23.722,mlds_experiment_numerosity_triads,2025.1.1,Linux x86_64,59.88023952,16.2089,18.0586,right,1.3058,,0,9,9,9,1,9,15,20,40,s_15_r_10.png,s_20_r_4.png,s_40_r_5.png,,
,,1,GA,2025-08-18_16h54.23.722,mlds_experiment_numerosity_triads,2025.1.1,Linux x86_64,59.88023952,18.0599,20.1282,right,1.5377,,0,10,10,10,1,10,40,20,10,s_40_r_3.png,s_20_r_10.png,s_10_r_10.png,,
,,1,GA,2025-08-18_16h54.23.722,mlds_experiment_numerosity_triads,2025.1.1,Linux x86_64,59.88023952,20.13,21.5117,left,0.8385,,0,11,11,11,1,11,50,25,5,s_50_r_5.png,s_25_r_10.png,s_5_r_3.png,,
,,1,GA,2025-08-18_16h54.23.722,mlds_experiment_numerosity_triads,2025.1.1,Linux x86_64,59.88023952,21.5128,22.8797,right,0.827,,0,12,12,12,1,12,20,33,40,s_20_r_9.png,s_33_r_3.png,s_40_r_5.png,,
,,1,GA,2025-08-18_16h54.23.722,mlds_experiment_numerosity_triads,2025.1.1,Linux x86_64,59.88023952,22.8804,24.1809,right,0.7786,,0,13,13,13,1,13,10,33,40,s_10_r_3.png,s_33_r_3.png,s_40_r_6.png,,
,,1,GA,2025-08-18_16h54.23.722,mlds_experiment_numerosity_triads,2025.1.1,Linux x86_64,59.88023952,24.1823,26.1662,left,1.4388,,0,14,14,14,1,14,60,40,25,s_60_r_6.png,s_40_r_4.png,s_25_r_5.png,,
,,1,GA,2025-08-18_16h54.23.722,mlds_experiment_numerosity_triads,2025.1.1,Linux x86_64,59.88023952,26.1677,28.3679,right,1.6537,,0,15,15,15,1,15,5,10,15,s_5_r_7.png,s_10_r_3.png,s_15_r_10.png,,
,,1,GA,2025-08-18_16h54.23.722,mlds_experiment_numerosity_triads,2025.1.1,Linux x86_64,59.88023952,28.3699,29.8194,right,0.915,,0,16,16,16,1,16,25,40,50,s_25_r_9.png,s_40_r_1.png,s_50_r_6.png,,
,,1,GA,2025-08-18_16h54.23.722,mlds_experiment_numerosity_triads,2025.1.1,Linux x86_64,59.88023952,29.8207,32.1205,left,1.7637,,0,17,17,17,1,17,5,10,33,s_5_r_7.png,s_10_r_4.png,s_33_r_2.png,,
,,1,GA,2025-08-18_16h54.23.722,mlds_experiment_numerosity_triads,2025.1.1,Linux x86_64,59.88023952,32.122,34.7903,right,2.1372,,0,18,18,18,1,18,33,50,60,s_33_r_10.png,s_50_r_4.png,s_60_r_9.png,,
,,1,GA,2025-08-18_16h54.23.722,mlds_experiment_numerosity_triads,2025.1.1,Linux x86_64,59.88023952,34.7915,37.2754,left,1.9435,,0,19,19,19,1,19,60,33,15,s_60_r_5.png,s_33_r_5.png,s_15_r_2.png,,
,,1,GA,2025-08-18_16h54.23.722,mlds_experiment_numerosity_triads,2025.1.1,Linux x86_64,59.88023952,37.2769,39.1101,left,1.296,,0,20,20,20,1,20,40,33,25,s_40_r_4.png,s_33_r_10.png,s_25_r_3.png,,
,,1,GA,2025-08-18_16h54.23.722,mlds_experiment_numerosity_triads,2025.1.1,Linux x86_64,59.88023952,39.1115,40.3109,right,0.6611,,0,21,21,21,1,21,5,15,25,s_5_r_5.png,s_15_r_7.png,s_25_r_8.png,,
,,1,GA,2025-08-18_16h54.23.722,mlds_experiment_numerosity_triads,2025.1.1,Linux x86_64,59.88023952,40.3135,41.6287,left,0.7745,,0,22,22,22,1,22,60,50,5,s_60_r_4.png,s_50_r_2.png,s_5_r_3.png,,
,,1,GA,2025-08-18_16h54.23.722,mlds_experiment_numerosity_triads,2025.1.1,Linux x86_64,59.88023952,41.6305,43.2975,right,1.1382,,0,23,23,23,1,23,60,25,15,s_60_r_1.png,s_25_r_10.png,s_15_r_9.png,,
,,1,GA,2025-08-18_16h54.23.722,mlds_experiment_numerosity_triads,2025.1.1,Linux x86_64,59.88023952,43.2994,44.6984,right,0.8529,,0,24,24,24,1,24,60,40,33,s_60_r_7.png,s_40_r_5.png,s_33_r_1.png,,
,,1,GA,2025-08-18_16h54.23.722,mlds_experiment_numerosity_triads,2025.1.1,Linux x86_64,59.88023952,44.6999,45.9491,right,0.7068,,0,25,25,25,1,25,20,25,60,s_20_r_2.png,s_25_r_3.png,s_60_r_8.png,,
,,1,GA,2025-08-18_16h54.23.722,mlds_experiment_numerosity_triads,2025.1.1,Linux x86_64,59.88023952,45.9504,48.4682,left,1.9727,,0,26,26,26,1,26,5,10,20,s_5_r_7.png,s_10_r_3.png,s_20_r_10.png,,
,,1,GA,2025-08-18_16h54.23.722,mlds_experiment_numerosity_triads,2025.1.1,Linux x86_64,59.88023952,48.4697,49.636,right,0.6247,,0,27,27,27,1,27,50,20,5,s_50_r_10.png,s_20_r_7.png,s_5_r_7.png,,
,,1,GA,2025-08-18_16h54.23.722,mlds_experiment_numerosity_triads,2025.1.1,Linux x86_64,59.88023952,49.6375,51.1537,right,0.9785,,0,28,28,28,1,28,60,33,25,s_60_r_5.png,s_33_r_9.png,s_25_r_6.png,,
,,1,GA,2025-08-18_16h54.23.722,mlds_experiment_numerosity_triads,2025.1.1,Linux x86_64,59.88023952,51.1553,53.2056,right,1.5056,,0,29,29,29,1,29,33,15,5,s_33_r_9.png,s_15_r_8.png,s_5_r_2.png,,
,,1,GA,2025-08-18_16h54.23.722,mlds_experiment_numerosity_triads,2025.1.1,Linux x86_64,59.88023952,53.2069,54.4397,right,0.6886,,0,30,30,30,1,30,10,25,40,s_10_r_9.png,s_25_r_5.png,s_40_r_1.png,,
,,1,GA,2025-08-18_16h54.23.722,mlds_experiment_numerosity_triads,2025.1.1,Linux x86_64,59.88023952,54.4414,56.175,left,1.1902,,0,31,31,31,1,31,40,33,5,s_40_r_1.png,s_33_r_4.png,s_5_r_4.png,,
,,1,GA,2025-08-18_16h54.23.722,mlds_experiment_numerosity_triads,2025.1.1,Linux x86_64,59.88023952,56.1765,57.4929,left,0.773,,0,32,32,32,1,32,60,50,20,s_60_r_3.png,s_50_r_10.png,s_20_r_10.png,,
,,1,GA,2025-08-18_16h54.23.722,mlds_experiment_numerosity_triads,2025.1.1,Linux x86_64,59.88023952,57.4946,58.6098,right,0.5719,,0,33,33,33,1,33,10,40,60,s_10_r_8.png,s_40_r_2.png,s_60_r_4.png,,
,,1,GA,2025-08-18_16h54.23.722,mlds_experiment_numerosity_triads,2025.1.1,Linux x86_64,59.88023952,58.6114,60.3112,left,1.158,,0,34,34,34,1,34,15,20,60,s_15_r_8.png,s_20_r_4.png,s_60_r_7.png,,
,,1,GA,2025-08-18_16h54.23.722,mlds_experiment_numerosity_triads,2025.1.1,Linux x86_64,59.88023952,60.3122,63.698,right,2.8553,,0,35,35,35,1,35,33,25,20,s_33_r_7.png,s_25_r_4.png,s_20_r_3.png,,
,,1,GA,2025-08-18_16h54.23.722,mlds_experiment_numerosity_triads,2025.1.1,Linux x86_64,59.88023952,63.6992,65.366,left,1.1236,,0,36,36,36,1,36,60,40,20,s_60_r_5.png,s_40_r_6.png,s_20_r_1.png,,
,,1,GA,2025-08-18_16h54.23.722,mlds_experiment_numerosity_triads,2025.1.1,Linux x86_64,59.88023952,65.3676,66.4667,right,0.5586,,0,37,37,37,1,37,10,40,50,s_10_r_7.png,s_40_r_8.png,s_50_r_9.png,,
,,1,GA,2025-08-18_16h54.23.722,mlds_experiment_numerosity_triads,2025.1.1,Linux x86_64,59.88023952,66.4685,68.2186,right,1.2043,,0,38,38,38,1,38,10,20,33,s_10_r_1.png,s_20_r_10.png,s_33_r_8.png,,
,,1,GA,2025-08-18_16h54.23.722,mlds_experiment_numerosity_triads,2025.1.1,Linux x86_64,59.88023952,68.22,69.8872,left,1.1309,,0,39,39,39,1,39,33,25,10,s_33_r_7.png,s_25_r_10.png,s_10_r_7.png,,
,,1,GA,2025-08-18_16h54.23.722,mlds_experiment_numerosity_triads,2025.1.1,Linux x86_64,59.88023952,69.8891,71.0869,right,0.6567,,0,40,40,40,1,40,50,10,5,s_50_r_2.png,s_10_r_10.png,s_5_r_7.png,,
,,1,GA,2025-08-18_16h54.23.722,mlds_experiment_numerosity_triads,2025.1.1,Linux x86_64,59.88023952,71.0878,72.3211,right,0.6954,,0,41,41,41,1,41,5,40,50,s_5_r_7.png,s_40_r_9.png,s_50_r_5.png,,
,,1,GA,2025-08-18_16h54.23.722,mlds_experiment_numerosity_triads,2025.1.1,Linux x86_64,59.88023952,72.3224,73.9229,right,1.0632,,0,42,42,42,1,42,60,33,20,s_60_r_8.png,s_33_r_9.png,s_20_r_9.png,,
,,1,GA,2025-08-18_16h54.23.722,mlds_experiment_numerosity_triads,2025.1.1,Linux x86_64,59.88023952,73.9237,75.1743,right,0.7223,,0,43,43,43,1,43,15,25,33,s_15_r_8.png,s_25_r_9.png,s_33_r_4.png,,
,,1,GA,2025-08-18_16h54.23.722,mlds_experiment_numerosity_triads,2025.1.1,Linux x86_64,59.88023952,75.1757,77.1592,left,1.4404,,0,44,44,44,1,44,5,10,40,s_5_r_10.png,s_10_r_1.png,s_40_r_7.png,,
,,1,GA,2025-08-18_16h54.23.722,mlds_experiment_numerosity_triads,2025.1.1,Linux x86_64,59.88023952,77.1613,80.0952,left,2.3975,,0,45,45,45,1,45,20,15,10,s_20_r_1.png,s_15_r_7.png,s_10_r_6.png,,
,,1,GA,2025-08-18_16h54.23.722,mlds_experiment_numerosity_triads,2025.1.1,Linux x86_64,59.88023952,80.0966,81.3789,right,0.7413,,0,46,46,46,1,46,10,20,25,s_10_r_9.png,s_20_r_3.png,s_25_r_10.png,,
,,1,GA,2025-08-18_16h54.23.722,mlds_experiment_numerosity_triads,2025.1.1,Linux x86_64,59.88023952,81.3804,82.6472,right,0.7383,,0,47,47,47,1,47,50,40,20,s_50_r_3.png,s_40_r_4.png,s_20_r_7.png,,
,,1,GA,2025-08-18_16h54.23.722,mlds_experiment_numerosity_triads,2025.1.1,Linux x86_64,59.88023952,82.6487,84.2318,left,1.0458,,0,48,48,48,1,48,40,25,5,s_40_r_10.png,s_25_r_3.png,s_5_r_4.png,,
,,1,GA,2025-08-18_16h54.23.722,mlds_experiment_numerosity_triads,2025.1.1,Linux x86_64,59.88023952,84.2335,85.4329,right,0.6521,,0,49,49,49,1,49,20,25,50,s_20_r_1.png,s_25_r_10.png,s_50_r_6.png,,
,,1,GA,2025-08-18_16h54.23.722,mlds_experiment_numerosity_triads,2025.1.1,Linux x86_64,59.88023952,85.4344,90.737,left,4.7569,,0,50,50,50,1,50,60,40,15,s_60_r_3.png,s_40_r_8.png,s_15_r_9.png,,
,,1,GA,2025-08-18_16h54.23.722,mlds_experiment_numerosity_triads,2025.1.1,Linux x86_64,59.88023952,90.738,92.4721,left,1.1955,,0,51,51,51,1,51,10,15,60,s_10_r_9.png,s_15_r_5.png,s_60_r_8.png,,
,,1,GA,2025-08-18_16h54.23.722,mlds_experiment_numerosity_triads,2025.1.1,Linux x86_64,59.88023952,92.4736,94.1065,right,1.0942,,0,52,52,52,1,52,50,40,33,s_50_r_3.png,s_40_r_8.png,s_33_r_10.png,,
,,1,GA,2025-08-18_16h54.23.722,mlds_experiment_numerosity_triads,2025.1.1,Linux x86_64,59.88023952,94.1079,95.358,right,0.7045,,0,53,53,53,1,53,25,50,60,s_25_r_7.png,s_50_r_10.png,s_60_r_2.png,,
,,1,GA,2025-08-18_16h54.23.722,mlds_experiment_numerosity_triads,2025.1.1,Linux x86_64,59.88023952,95.3599,96.6755,right,0.7801,,0,54,54,54,1,54,50,25,15,s_50_r_3.png,s_25_r_8.png,s_15_r_1.png,,
,,1,GA,2025-08-18_16h54.23.722,mlds_experiment_numerosity_triads,2025.1.1,Linux x86_64,59.88023952,96.6772,97.9262,right,0.7101,,0,55,55,55,1,55,60,15,5,s_60_r_5.png,s_15_r_9.png,s_5_r_3.png,,
,,1,GA,2025-08-18_16h54.23.722,mlds_experiment_numerosity_triads,2025.1.1,Linux x86_64,59.88023952,97.9277,99.4107,right,0.9376,,0,56,56,56,1,56,60,20,10,s_60_r_1.png,s_20_r_7.png,s_10_r_2.png,,
,,1,GA,2025-08-18_16h54.23.722,mlds_experiment_numerosity_triads,2025.1.1,Linux x86_64,59.88023952,99.4127,100.6456,right,0.6909,,0,57,57,57,1,57,40,15,5,s_40_r_7.png,s_15_r_1.png,s_5_r_1.png,,
,,1,GA,2025-08-18_16h54.23.722,mlds_experiment_numerosity_triads,2025.1.1,Linux x86_64,59.88023952,100.6473,101.8296,right,0.6365,,0,58,58,58,1,58,10,50,60,s_10_r_6.png,s_50_r_3.png,s_60_r_7.png,,
,,1,GA,2025-08-18_16h54.23.722,mlds_experiment_numerosity_triads,2025.1.1,Linux x86_64,59.88023952,101.8305,103.1306,right,0.7515,,0,59,59,59,1,59,5,20,33,s_5_r_6.png,s_20_r_3.png,s_33_r_6.png,,
,,1,GA,2025-08-18_16h54.23.722,mlds_experiment_numerosity_triads,2025.1.1,Linux x86_64,59.88023952,103.1313,105.2831,right,1.6114,,0,60,60,60,1,60,25,33,50,s_25_r_4.png,s_33_r_5.png,s_50_r_1.png,,
,,1,GA,2025-08-18_16h54.23.722,mlds_experiment_numerosity_triads,2025.1.1,Linux x86_64,59.88023952,105.2846,106.7677,right,0.9421,,0,61,61,61,1,61,50,33,15,s_50_r_8.png,s_33_r_5.png,s_15_r_3.png,,
,,1,GA,2025-08-18_16h54.23.722,mlds_experiment_numerosity_triads,2025.1.1,Linux x86_64,59.88023952,106.7697,107.8851,right,0.5709,,0,62,62,62,1,62,15,50,60,s_15_r_10.png,s_50_r_2.png,s_60_r_8.png,,
,,1,GA,2025-08-18_16h54.23.722,mlds_experiment_numerosity_triads,2025.1.1,Linux x86_64,59.88023952,107.8867,109.7024,right,1.2711,,0,63,63,63,1,63,40,25,15,s_40_r_7.png,s_25_r_1.png,s_15_r_9.png,,
,,1,GA,2025-08-18_16h54.23.722,mlds_experiment_numerosity_triads,2025.1.1,Linux x86_64,59.88023952,109.7033,111.0042,right,0.7704,,0,64,64,64,1,64,20,33,50,s_20_r_2.png,s_33_r_4.png,s_50_r_10.png,,
,,1,GA,2025-08-18_16h54.23.722,mlds_experiment_numerosity_triads,2025.1.1,Linux x86_64,59.88023952,111.005,112.6224,left,1.0912,,0,65,65,65,1,65,60,40,5,s_60_r_3.png,s_40_r_1.png,s_5_r_6.png,,
,,1,GA,2025-08-18_16h54.23.722,mlds_experiment_numerosity_triads,2025.1.1,Linux x86_64,59.88023952,112.6242,113.8396,right,0.6888,,0,66,66,66,1,66,5,20,25,s_5_r_7.png,s_20_r_4.png,s_25_r_8.png,,
,,1,GA,2025-08-18_16h54.23.722,mlds_experiment_numerosity_triads,2025.1.1,Linux x86_64,59.88023952,113.8403,115.6251,right,1.2394,,0,67,67,67,1,67,60,25,5,s_60_r_9.png,s_25_r_8.png,s_5_r_1.png,,
,,1,GA,2025-08-18_16h54.23.722,mlds_experiment_numerosity_triads,2025.1.1,Linux x86_64,59.88023952,115.6261,117.2093,right,1.0455,,0,68,68,68,1,68,50,25,10,s_50_r_2.png,s_25_r_5.png,s_10_r_4.png,,
,,1,GA,2025-08-18_16h54.23.722,mlds_experiment_numerosity_triads,2025.1.1,Linux x86_64,59.88023952,117.2102,118.4434,right,0.7051,,0,69,69,69,1,69,25,10,5,s_25_r_9.png,s_10_r_9.png,s_5_r_5.png,,
,,1,GA,2025-08-18_16h54.23.722,mlds_experiment_numerosity_triads,2025.1.1,Linux x86_64,59.88023952,118.4447,120.3454,left,1.3706,,0,70,70,70,1,70,10,25,60,s_10_r_5.png,s_25_r_9.png,s_60_r_9.png,,
,,1,GA,2025-08-18_16h54.23.722,mlds_experiment_numerosity_triads,2025.1.1,Linux x86_64,59.88023952,120.3464,122.0297,right,1.1599,,0,71,71,71,1,71,25,15,10,s_25_r_1.png,s_15_r_2.png,s_10_r_8.png,,
,,1,GA,2025-08-18_16h54.23.722,mlds_experiment_numerosity_triads,2025.1.1,Linux x86_64,59.88023952,122.031,123.4317,left,0.8549,,0,72,72,72,1,72,50,40,15,s_50_r_2.png,s_40_r_7.png,s_15_r_5.png,,
,,1,GA,2025-08-18_16h54.23.722,mlds_experiment_numerosity_triads,2025.1.1,Linux x86_64,59.88023952,123.4332,125.5662,right,1.5923,,0,73,73,73,1,73,40,25,20,s_40_r_5.png,s_25_r_6.png,s_20_r_5.png,,
,,1,GA,2025-08-18_16h54.23.722,mlds_experiment_numerosity_triads,2025.1.1,Linux x86_64,59.88023952,125.5672,127.7686,left,1.6796,,0,74,74,74,1,74,40,20,5,s_40_r_2.png,s_20_r_5.png,s_5_r_7.png,,
,,1,GA,2025-08-18_16h54.23.722,mlds_experiment_numerosity_triads,2025.1.1,Linux x86_64,59.88023952,127.7695,130.3042,left,2.0046,,0,75,75,75,1,75,15,20,25,s_15_r_8.png,s_20_r_5.png,s_25_r_2.png,,
,,1,GA,2025-08-18_16h54.23.722,mlds_experiment_numerosity_triads,2025.1.1,Linux x86_64,59.88023952,130.3059,131.9555,right,1.1093,,0,76,76,76,1,76,15,20,33,s_15_r_2.png,s_20_r_3.png,s_33_r_7.png,,
,,1,GA,2025-08-18_16h54.23.722,mlds_experiment_numerosity_triads,2025.1.1,Linux x86_64,59.88023952,131.9568,134.0395,left,1.5419,,0,77,77,77,1,77,10,15,40,s_10_r_10.png,s_15_r_8.png,s_40_r_5.png,,
,,1,GA,2025-08-18_16h54.23.722,mlds_experiment_numerosity_triads,2025.1.1,Linux x86_64,59.88023952,134.0401,135.9587,left,1.3925,,0,78,78,78,1,78,10,15,50,s_10_r_1.png,s_15_r_10.png,s_50_r_8.png,,
,,1,GA,2025-08-18_16h54.23.722,mlds_experiment_numerosity_triads,2025.1.1,Linux x86_64,59.88023952,135.9602,140.4128,left,3.9135,,0,79,79,79,1,79,50,20,15,s_50_r_6.png,s_20_r_5.png,s_15_r_8.png,,
,,1,GA,2025-08-18_16h54.23.722,mlds_experiment_numerosity_triads,2025.1.1,Linux x86_64,59.88023952,140.4141,142.1633,left,1.211,,0,80,80,80,1,80,40,33,15,s_40_r_9.png,s_33_r_6.png,s_15_r_7.png,,
,,1,GA,2025-08-18_16h54.23.722,mlds_experiment_numerosity_triads,2025.1.1,Linux x86_64,59.88023952,142.1649,144.2325,left,1.5371,,0,81,81,81,1,81,40,50,60,s_40_r_7.png,s_50_r_5.png,s_60_r_8.png,,
,,1,GA,2025-08-18_16h54.23.722,mlds_experiment_numerosity_triads,2025.1.1,Linux x86_64,59.88023952,144.234,145.934,right,1.1538,,0,82,82,82,1,82,10,20,50,s_10_r_7.png,s_20_r_1.png,s_50_r_7.png,,
,,1,GA,2025-08-18_16h54.23.722,mlds_experiment_numerosity_triads,2025.1.1,Linux x86_64,59.88023952,145.9359,148.0516,right,1.5785,,0,83,83,83,1,83,50,15,5,s_50_r_8.png,s_15_r_4.png,s_5_r_10.png,,
,,1,GA,2025-08-18_16h54.23.722,mlds_experiment_numerosity_triads,2025.1.1,Linux x86_64,59.88023952,,,,,,,,,,,,,,,,,,148.0521,150.0542
0.0003,1.8746,2,GA,2025-08-18_17h01.02.682,mlds_experiment_numerosity_triads,2025.1.1,Linux x86_64,59.88023952,,,,,,,,,,,,,,,,,,,
,,2,GA,2025-08-18_17h01.02.682,mlds_experiment_numerosity_triads,2025.1.1,Linux x86_64,59.88023952,1.886,4.7433,right,2.3226,,0,0,0,0,1,0,60,20,10,s_60_r_3.png,s_20_r_3.png,s_10_r_3.png,,
,,2,GA,2025-08-18_17h01.02.682,mlds_experiment_numerosity_triads,2025.1.1,Linux x86_64,59.88023952,4.7452,8.53,left,3.2405,,0,1,1,1,1,1,10,20,50,s_10_r_5.png,s_20_r_10.png,s_50_r_10.png,,
,,2,GA,2025-08-18_17h01.02.682,mlds_experiment_numerosity_triads,2025.1.1,Linux x86_64,59.88023952,8.5316,10.131,left,1.0584,,0,2,2,2,1,2,10,15,40,s_10_r_2.png,s_15_r_6.png,s_40_r_6.png,,
,,2,GA,2025-08-18_17h01.02.682,mlds_experiment_numerosity_triads,2025.1.1,Linux x86_64,59.88023952,10.1324,12.1657,right,1.4884,,0,3,3,3,1,3,50,20,15,s_50_r_8.png,s_20_r_6.png,s_15_r_3.png,,
,,2,GA,2025-08-18_17h01.02.682,mlds_experiment_numerosity_triads,2025.1.1,Linux x86_64,59.88023952,12.1668,14.1509,right,1.4551,,0,4,4,4,1,4,5,20,40,s_5_r_2.png,s_20_r_4.png,s_40_r_1.png,,
,,2,GA,2025-08-18_17h01.02.682,mlds_experiment_numerosity_triads,2025.1.1,Linux x86_64,59.88023952,14.1529,17.1035,left,2.4077,,0,5,5,5,1,5,50,40,20,s_50_r_1.png,s_40_r_6.png,s_20_r_4.png,,
,,2,GA,2025-08-18_17h01.02.682,mlds_experiment_numerosity_triads,2025.1.1,Linux x86_64,59.88023952,17.1052,19.2052,left,1.5558,,0,6,6,6,1,6,5,15,60,s_5_r_7.png,s_15_r_8.png,s_60_r_5.png,,
,,2,GA,2025-08-18_17h01.02.682,mlds_experiment_numerosity_triads,2025.1.1,Linux x86_64,59.88023952,19.207,20.473,right,0.7231,,0,7,7,7,1,7,60,10,5,s_60_r_4.png,s_10_r_5.png,s_5_r_8.png,,
,,2,GA,2025-08-18_17h01.02.682,mlds_experiment_numerosity_triads,2025.1.1,Linux x86_64,59.88023952,20.475,22.2239,left,1.2048,,0,8,8,8,1,8,15,20,60,s_15_r_1.png,s_20_r_6.png,s_60_r_5.png,,
,,2,GA,2025-08-18_17h01.02.682,mlds_experiment_numerosity_triads,2025.1.1,Linux x86_64,59.88023952,22.2251,23.8256,left,1.0777,,0,9,9,9,1,9,40,25,5,s_40_r_5.png,s_25_r_3.png,s_5_r_9.png,,
,,2,GA,2025-08-18_17h01.02.682,mlds_experiment_numerosity_triads,2025.1.1,Linux x86_64,59.88023952,23.8266,27.0619,left,2.6933,,0,10,10,10,1,10,50,33,15,s_50_r_1.png,s_33_r_4.png,s_15_r_4.png,,
,,2,GA,2025-08-18_17h01.02.682,mlds_experiment_numerosity_triads,2025.1.1,Linux x86_64,59.88023952,27.0634,29.7806,left,2.1745,,0,11,11,11,1,11,40,25,15,s_40_r_1.png,s_25_r_8.png,s_15_r_4.png,,
,,2,GA,2025-08-18_17h01.02.682,mlds_experiment_numerosity_triads,2025.1.1,Linux x86_64,59.88023952,29.7817,32.7503,left,2.421,,0,12,12,12,1,12,60,50,33,s_60_r_1.png,s_50_r_8.png,s_33_r_10.png,,
,,2,GA,2025-08-18_17h01.02.682,mlds_experiment_numerosity_triads,2025.1.1,Linux x86_64,59.88023952,32.752,34.2007,left,0.9103,,0,13,13,13,1,13,25,20,10,s_25_r_7.png,s_20_r_5.png,s_10_r_7.png,,
,,2,GA,2025-08-18_17h01.02.682,mlds_experiment_numerosity_triads,2025.1.1,Linux x86_64,59.88023952,34.2022,36.9033,right,2.1554,,0,14,14,14,1,14,40,50,60,s_40_r_9.png,s_50_r_1.png,s_60_r_6.png,,
,,2,GA,2025-08-18_17h01.02.682,mlds_experiment_numerosity_triads,2025.1.1,Linux x86_64,59.88023952,36.9043,38.6377,right,1.2055,,0,15,15,15,1,15,5,50,60,s_5_r_5.png,s_50_r_3.png,s_60_r_9.png,,
,,2,GA,2025-08-18_17h01.02.682,mlds_experiment_numerosity_triads,2025.1.1,Linux x86_64,59.88023952,38.6392,40.3725,right,1.1962,,0,16,16,16,1,16,60,15,10,s_60_r_3.png,s_15_r_9.png,s_10_r_5.png,,
,,2,GA,2025-08-18_17h01.02.682,mlds_experiment_numerosity_triads,2025.1.1,Linux x86_64,59.88023952,40.3742,43.3919,left,2.4721,,0,17,17,17,1,17,15,33,40,s_15_r_7.png,s_33_r_8.png,s_40_r_9.png,,
,,2,GA,2025-08-18_17h01.02.682,mlds_experiment_numerosity_triads,2025.1.1,Linux x86_64,59.88023952,43.394,45.3606,left,1.4218,,0,18,18,18,1,18,40,33,10,s_40_r_3.png,s_33_r_8.png,s_10_r_8.png,,
,,2,GA,2025-08-18_17h01.02.682,mlds_experiment_numerosity_triads,2025.1.1,Linux x86_64,59.88023952,45.3623,46.662,left,0.7573,,0,19,19,19,1,19,60,33,10,s_60_r_8.png,s_33_r_2.png,s_10_r_10.png,,
,,2,GA,2025-08-18_17h01.02.682,mlds_experiment_numerosity_triads,2025.1.1,Linux x86_64,59.88023952,46.6636,47.8287,right,0.6252,,0,20,20,20,1,20,20,50,60,s_20_r_10.png,s_50_r_3.png,s_60_r_7.png,,
,,2,GA,2025-08-18_17h01.02.682,mlds_experiment_numerosity_triads,2025.1.1,Linux x86_64,59.88023952,47.8298,50.1144,right,1.7372,,0,21,21,21,1,21,15,25,60,s_15_r_9.png,s_25_r_3.png,s_60_r_1.png,,
,,2,GA,2025-08-18_17h01.02.682,mlds_experiment_numerosity_triads,2025.1.1,Linux x86_64,59.88023952,50.116,51.8326,right,1.17,,0,22,22,22,1,22,15,20,25,s_15_r_8.png,s_20_r_8.png,s_25_r_3.png,,
,,2,GA,2025-08-18_17h01.02.682,mlds_experiment_numerosity_triads,2025.1.1,Linux x86_64,59.88023952,51.834,52.9838,right,0.6178,,0,23,23,23,1,23,10,50,60,s_10_r_5.png,s_50_r_10.png,s_60_r_5.png,,
,,2,GA,2025-08-18_17h01.02.682,mlds_experiment_numerosity_triads,2025.1.1,Linux x86_64,59.88023952,52.9852,54.9518,right,1.4302,,0,24,24,24,1,24,50,25,20,s_50_r_9.png,s_25_r_5.png,s_20_r_5.png,,
,,2,GA,2025-08-18_17h01.02.682,mlds_experiment_numerosity_triads,2025.1.1,Linux x86_64,59.88023952,54.9527,56.1701,right,0.6865,,0,25,25,25,1,25,15,40,50,s_15_r_9.png,s_40_r_2.png,s_50_r_10.png,,
,,2,GA,2025-08-18_17h01.02.682,mlds_experiment_numerosity_triads,2025.1.1,Linux x86_64,59.88023952,56.1716,57.4878,right,0.7753,,0,26,26,26,1,26,20,40,60,s_20_r_8.png,s_40_r_2.png,s_60_r_6.png,,
,,2,GA,2025-08-18_17h01.02.682,mlds_experiment_numerosity_triads,2025.1.1,Linux x86_64,59.88023952,57.4894,58.7716,right,0.7352,,0,27,27,27,1,27,50,10,5,s_50_r_6.png,s_10_r_7.png,s_5_r_10.png,,
,,2,GA,2025-08-18_17h01.02.682,mlds_experiment_numerosity_triads,2025.1.1,Linux x86_64,59.88023952,58.772,60.7069,left,1.4107,,0,28,28,28,1,28,20,10,5,s_20_r_10.png,s_10_r_7.png,s_5_r_8.png,,
,,2,GA,2025-08-18_17h01.02.682,mlds_experiment_numerosity_triads,2025.1.1,Linux x86_64,59.88023952,60.7088,62.6918,right,1.4429,,0,29,29,29,1,29,50,15,10,s_50_r_5.png,s_15_r_7.png,s_10_r_9.png,,
,,2,GA,2025-08-18_17h01.02.682,mlds_experiment_numerosity_triads,2025.1.1,Linux x86_64,59.88023952,62.6927,63.9096,right,0.6752,,0,30,30,30,1,30,5,25,33,s_5_r_7.png,s_25_r_3.png,s_33_r_1.png,,
,,2,GA,2025-08-18_17h01.02.682,mlds_experiment_numerosity_triads,2025.1.1,Linux x86_64,59.88023952,63.9115,65.3278,left,0.8744,,0,31,31,31,1,31,40,33,5,s_40_r_6.png,s_33_r_4.png,s_5_r_1.png,,
,,2,GA,2025-08-18_17h01.02.682,mlds_experiment_numerosity_triads,2025.1.1,Linux x86_64,59.88023952,65.3294,67.6293,left,1.7551,,0,32,32,32,1,32,50,40,25,s_50_r_1.png,s_40_r_3.png,s_25_r_10.png,,
,,2,GA,2025-08-18_17h01.02.682,mlds_experiment_numerosity_triads,2025.1.1,Linux x86_64,59.88023952,67.6308,69.2481,left,1.0806,,0,33,33,33,1,33,25,20,5,s_25_r_3.png,s_20_r_7.png,s_5_r_3.png,,
,,2,GA,2025-08-18_17h01.02.682,mlds_experiment_numerosity_triads,2025.1.1,Linux x86_64,59.88023952,69.2496,71.1825,right,1.3999,,0,34,34,34,1,34,50,33,20,s_50_r_2.png,s_33_r_8.png,s_20_r_1.png,,
,,2,GA,2025-08-18_17h01.02.682,mlds_experiment_numerosity_triads,2025.1.1,Linux x86_64,59.88023952,71.1836,72.9501,right,1.2334,,0,35,35,35,1,35,50,25,5,s_50_r_10.png,s_25_r_1.png,s_5_r_7.png,,
,,2,GA,2025-08-18_17h01.02.682,mlds_experiment_numerosity_triads,2025.1.1,Linux x86_64,59.88023952,72.9512,75.6192,right,2.1288,,0,36,36,36,1,36,10,20,40,s_10_r_7.png,s_20_r_3.png,s_40_r_4.png,,
,,2,GA,2025-08-18_17h01.02.682,mlds_experiment_numerosity_triads,2025.1.1,Linux x86_64,59.88023952,75.6205,78.7723,left,2.6216,,0,37,37,37,1,37,20,25,40,s_20_r_10.png,s_25_r_7.png,s_40_r_1.png,,
,,2,GA,2025-08-18_17h01.02.682,mlds_experiment_numerosity_triads,2025.1.1,Linux x86_64,59.88023952,78.7737,80.657,right,1.3475,,0,38,38,38,1,38,15,10,5,s_15_r_6.png,s_10_r_3.png,s_5_r_2.png,,
,,2,GA,2025-08-18_17h01.02.682,mlds_experiment_numerosity_triads,2025.1.1,Linux x86_64,59.88023952,80.6579,82.4085,right,1.2138,,0,39,39,39,1,39,25,15,10,s_25_r_6.png,s_15_r_5.png,s_10_r_8.png,,
,,2,GA,2025-08-18_17h01.02.682,mlds_experiment_numerosity_triads,2025.1.1,Linux x86_64,59.88023952,82.41,84.5441,right,1.5946,,0,40,40,40,1,40,33,15,5,s_33_r_9.png,s_15_r_5.png,s_5_r_3.png,,
,,2,GA,2025-08-18_17h01.02.682,mlds_experiment_numerosity_triads,2025.1.1,Linux x86_64,59.88023952,84.5451,86.5955,left,1.5038,,0,41,41,41,1,41,25,33,50,s_25_r_4.png,s_33_r_4.png,s_50_r_7.png,,
,,2,GA,2025-08-18_17h01.02.682,mlds_experiment_numerosity_triads,2025.1.1,Linux x86_64,59.88023952,86.5972,88.2132,right,1.0752,,0,42,42,42,1,42,40,15,5,s_40_r_9.png,s_15_r_9.png,s_5_r_8.png,,
,,2,GA,2025-08-18_17h01.02.682,mlds_experiment_numerosity_triads,2025.1.1,Linux x86_64,59.88023952,88.215,89.5813,left,0.8211,,0,43,43,43,1,43,5,20,50,s_5_r_6.png,s_20_r_3.png,s_50_r_9.png,,
,,2,GA,2025-08-18_17h01.02.682,mlds_experiment_numerosity_triads,2025.1.1,Linux x86_64,59.88023952,89.5831,91.8668,right,1.738,,0,44,44,44,1,44,60,33,25,s_60_r_6.png,s_33_r_10.png,s_25_r_5.png,,
,,2,GA,2025-08-18_17h01.02.682,mlds_experiment_numerosity_triads,2025.1.1,Linux x86_64,59.88023952,91.8679,93.1178,right,0.7041,,0,45,45,45,1,45,50,15,5,s_50_r_4.png,s_15_r_8.png,s_5_r_3.png,,
,,2,GA,2025-08-18_17h01.02.682,mlds_experiment_numerosity_triads,2025.1.1,Linux x86_64,59.88023952,93.1194,94.6019,left,0.942,,0,46,46,46,1,46,60,40,15,s_60_r_4.png,s_40_r_5.png,s_15_r_9.png,,
,,2,GA,2025-08-18_17h01.02.682,mlds_experiment_numerosity_triads,2025.1.1,Linux x86_64,59.88023952,94.6028,95.8367,right,0.6869,,0,47,47,47,1,47,5,40,60,s_5_r_5.png,s_40_r_2.png,s_60_r_2.png,,
,,2,GA,2025-08-18_17h01.02.682,mlds_experiment_numerosity_triads,2025.1.1,Linux x86_64,59.88023952,95.8383,98.0879,right,1.7082,,0,48,48,48,1,48,40,25,10,s_40_r_10.png,s_25_r_7.png,s_10_r_8.png,,
,,2,GA,2025-08-18_17h01.02.682,mlds_experiment_numerosity_triads,2025.1.1,Linux x86_64,59.88023952,98.0898,99.9571,right,1.328,,0,49,49,49,1,49,33,40,50,s_33_r_9.png,s_40_r_5.png,s_50_r_5.png,,
,,2,GA,2025-08-18_17h01.02.682,mlds_experiment_numerosity_triads,2025.1.1,Linux x86_64,59.88023952,99.9588,101.4413,right,0.9509,,0,50,50,50,1,50,60,20,5,s_60_r_8.png,s_20_r_4.png,s_5_r_3.png,,
,,2,GA,2025-08-18_17h01.02.682,mlds_experiment_numerosity_triads,2025.1.1,Linux x86_64,59.88023952,101.4428,103.8938,right,1.9004,,0,51,51,51,1,51,33,40,60,s_33_r_7.png,s_40_r_7.png,s_60_r_10.png,,
,,2,GA,2025-08-18_17h01.02.682,mlds_experiment_numerosity_triads,2025.1.1,Linux x86_64,59.88023952,103.8953,105.6283,right,1.1943,,0,52,52,52,1,52,15,20,33,s_15_r_3.png,s_20_r_8.png,s_33_r_6.png,,
,,2,GA,2025-08-18_17h01.02.682,mlds_experiment_numerosity_triads,2025.1.1,Linux x86_64,59.88023952,105.629,107.2459,left,1.0717,,0,53,53,53,1,53,60,50,25,s_60_r_7.png,s_50_r_9.png,s_25_r_5.png,,
,,2,GA,2025-08-18_17h01.02.682,mlds_experiment_numerosity_triads,2025.1.1,Linux x86_64,59.88023952,107.2477,108.6133,right,0.8172,,0,54,54,54,1,54,60,25,10,s_60_r_5.png,s_25_r_9.png,s_10_r_1.png,,
,,2,GA,2025-08-18_17h01.02.682,mlds_experiment_numerosity_triads,2025.1.1,Linux x86_64,59.88023952,108.6143,110.2652,right,1.1256,,0,55,55,55,1,55,20,15,5,s_20_r_9.png,s_15_r_8.png,s_5_r_9.png,,
,,2,GA,2025-08-18_17h01.02.682,mlds_experiment_numerosity_triads,2025.1.1,Linux x86_64,59.88023952,110.2668,112.6008,left,1.7897,,0,56,56,56,1,56,10,20,33,s_10_r_4.png,s_20_r_6.png,s_33_r_10.png,,
,,2,GA,2025-08-18_17h01.02.682,mlds_experiment_numerosity_triads,2025.1.1,Linux x86_64,59.88023952,112.6017,113.8513,right,0.7131,,0,57,57,57,1,57,40,10,5,s_40_r_9.png,s_10_r_7.png,s_5_r_4.png,,
,,2,GA,2025-08-18_17h01.02.682,mlds_experiment_numerosity_triads,2025.1.1,Linux x86_64,59.88023952,113.8516,115.2357,right,0.8592,,0,58,58,58,1,58,25,10,5,s_25_r_10.png,s_10_r_1.png,s_5_r_7.png,,
,,2,GA,2025-08-18_17h01.02.682,mlds_experiment_numerosity_triads,2025.1.1,Linux x86_64,59.88023952,115.236,116.5869,right,0.8365,,0,59,59,59,1,59,50,25,10,s_50_r_7.png,s_25_r_1.png,s_10_r_3.png,,
,,2,GA,2025-08-18_17h01.02.682,mlds_experiment_numerosity_triads,2025.1.1,Linux x86_64,59.88023952,116.5877,118.339,right,1.2056,,0,60,60,60,1,60,5,15,25,s_5_r_10.png,s_15_r_5.png,s_25_r_7.png,,
,,2,GA,2025-08-18_17h01.02.682,mlds_experiment_numerosity_triads,2025.1.1,Linux x86_64,59.88023952,118.3401,120.8077,left,1.9244,,0,61,61,61,1,61,33,25,10,s_33_r_4.png,s_25_r_1.png,s_10_r_7.png,,
,,2,GA,2025-08-18_17h01.02.682,mlds_experiment_numerosity_triads,2025.1.1,Linux x86_64,59.88023952,120.8087,122.8592,right,1.5129,,0,62,62,62,1,62,15,25,33,s_15_r_6.png,s_25_r_5.png,s_33_r_3.png,,
,,2,GA,2025-08-18_17h01.02.682,mlds_experiment_numerosity_triads,2025.1.1,Linux x86_64,59.88023952,122.8603,125.6784,right,2.2762,,0,63,63,63,1,63,20,25,33,s_20_r_4.png,s_25_r_10.png,s_33_r_8.png,,
,,2,GA,2025-08-18_17h01.02.682,mlds_experiment_numerosity_triads,2025.1.1,Linux x86_64,59.88023952,125.6797,126.8631,right,0.6342,,0,64,64,64,1,64,5,40,50,s_5_r_5.png,s_40_r_10.png,s_50_r_6.png,,
,,2,GA,2025-08-18_17h01.02.682,mlds_experiment_numerosity_triads,2025.1.1,Linux x86_64,59.88023952,126.8646,130.0818,left,2.6763,,0,65,65,65,1,65,60,25,5,s_60_r_4.png,s_25_r_10.png,s_5_r_6.png,,
,,2,GA,2025-08-18_17h01.02.682,mlds_experiment_numerosity_triads,2025.1.1,Linux x86_64,59.88023952,130.083,132.8012,right,2.1985,,0,66,66,66,1,66,10,15,33,s_10_r_2.png,s_15_r_3.png,s_33_r_9.png,,
,,2,GA,2025-08-18_17h01.02.682,mlds_experiment_numerosity_triads,2025.1.1,Linux x86_64,59.88023952,132.8029,134.2354,left,0.8934,,0,67,67,67,1,67,60,33,5,s_60_r_6.png,s_33_r_6.png,s_5_r_3.png,,
,,2,GA,2025-08-18_17h01.02.682,mlds_experiment_numerosity_triads,2025.1.1,Linux x86_64,59.88023952,134.2368,135.5199,right,0.7402,,0,68,68,68,1,68,10,33,50,s_10_r_7.png,s_33_r_9.png,s_50_r_7.png,,
,,2,GA,2025-08-18_17h01.02.682,mlds_experiment_numerosity_triads,2025.1.1,Linux x86_64,59.88023952,135.5217,137.2209,left,1.1621,,0,69,69,69,1,69,15,20,40,s_15_r_5.png,s_20_r_10.png,s_40_r_1.png,,
,,2,GA,2025-08-18_17h01.02.682,mlds_experiment_numerosity_triads,2025.1.1,Linux x86_64,59.88023952,137.2218,138.4728,right,0.7198,,0,70,70,70,1,70,60,25,20,s_60_r_6.png,s_25_r_10.png,s_20_r_8.png,,
,,2,GA,2025-08-18_17h01.02.682,mlds_experiment_numerosity_triads,2025.1.1,Linux x86_64,59.88023952,138.4742,139.7732,right,0.7592,,0,71,71,71,1,71,10,40,50,s_10_r_10.png,s_40_r_7.png,s_50_r_2.png,,
,,2,GA,2025-08-18_17h01.02.682,mlds_experiment_numerosity_triads,2025.1.1,Linux x86_64,59.88023952,139.7744,141.0249,right,0.7222,,0,72,72,72,1,72,33,10,5,s_33_r_6.png,s_10_r_9.png,s_5_r_3.png,,
,,2,GA,2025-08-18_17h01.02.682,mlds_experiment_numerosity_triads,2025.1.1,Linux x86_64,59.88023952,141.0264,142.3418,right,0.7718,,0,73,73,73,1,73,5,33,50,s_5_r_3.png,s_33_r_3.png,s_50_r_1.png,,
,,2,GA,2025-08-18_17h01.02.682,mlds_experiment_numerosity_triads,2025.1.1,Linux x86_64,59.88023952,142.3436,143.577,right,0.6891,,0,74,74,74,1,74,15,25,50,s_15_r_8.png,s_25_r_6.png,s_50_r_3.png,,
,,2,GA,2025-08-18_17h01.02.682,mlds_experiment_numerosity_triads,2025.1.1,Linux x86_64,59.88023952,143.5783,145.3285,right,1.2082,,0,75,75,75,1,75,25,40,60,s_25_r_5.png,s_40_r_9.png,s_60_r_7.png,,
,,2,GA,2025-08-18_17h01.02.682,mlds_experiment_numerosity_triads,2025.1.1,Linux x86_64,59.88023952,145.3308,146.729,right,0.853,,0,76,76,76,1,76,15,33,60,s_15_r_3.png,s_33_r_1.png,s_60_r_2.png,,
,,2,GA,2025-08-18_17h01.02.682,mlds_experiment_numerosity_triads,2025.1.1,Linux x86_64,59.88023952,146.7309,147.9468,right,0.6752,,0,77,77,77,1,77,5,20,33,s_5_r_1.png,s_20_r_5.png,s_33_r_8.png,,
,,2,GA,2025-08-18_17h01.02.682,mlds_experiment_numerosity_triads,2025.1.1,Linux x86_64,59.88023952,147.9483,149.6323,left,1.1384,,0,78,78,78,1,78,60,40,10,s_60_r_6.png,s_40_r_10.png,s_10_r_3.png,,
,,2,GA,2025-08-18_17h01.02.682,mlds_experiment_numerosity_triads,2025.1.1,Linux x86_64,59.88023952,149.634,151.1991,left,1.022,,0,79,79,79,1,79,20,15,10,s_20_r_5.png,s_15_r_9.png,s_10_r_1.png,,
,,2,GA,2025-08-18_17h01.02.682,mlds_experiment_numerosity_triads,2025.1.1,Linux x86_64,59.88023952,151.2002,152.401,right,0.672,,0,80,80,80,1,80,15,50,60,s_15_r_7.png,s_50_r_4.png,s_60_r_8.png,,
,,2,GA,2025-08-18_17h01.02.682,mlds_experiment_numerosity_triads,2025.1.1,Linux x86_64,59.88023952,152.4025,153.8852,right,0.9408,,0,81,81,81,1,81,40,33,25,s_40_r_2.png,s_33_r_7.png,s_25_r_6.png,,
,,2,GA,2025-08-18_17h01.02.682,mlds_experiment_numerosity_triads,2025.1.1,Linux x86_64,59.88023952,153.8863,156.1376,right,1.7166,,0,82,82,82,1,82,60,33,20,s_60_r_7.png,s_33_r_10.png,s_20_r_6.png,,
,,2,GA,2025-08-18_17h01.02.682,mlds_experiment_numerosity_triads,2025.1.1,Linux x86_64,59.88023952,156.1389,158.189,left,1.5004,,0,83,83,83,1,83,40,33,20,s_40_r_2.png,s_33_r_3.png,s_20_r_7.png,,
,,2,GA,2025-08-18_17h01.02.682,mlds_experiment_numerosity_triads,2025.1.1,Linux x86_64,59.88023952,,,,,,,,,,,,,,,,,,158.1893,160.1909
