trial,lum1,lum2,c1,c2,im,thisN,thisTrialN,thisRepN,resp.keys,resp.rt,resp.duration,trials.thisRepN,trials.thisTrialN,trials.thisN,trials.thisIndex,thisRow.t,notes,instruct.started,ready.started,instrText.started,instruct.stopped,trial.started,resp.started,image.started,trial.stopped,trials.resp.keys,trials.resp.rt,trials.resp.duration,thanks.started,thanksText.started,thanks.stopped,session,participant,date,expName,expVersion,psychopyVersion,frameRate,expStart,
,,,,,,,,,,,,,,,,,,0.006308317184448242,0.010123968124389648,0.010123968124389648,0.8789873123168945,,,,,,,,,,,2,GA6,2025-08-20_16h08.28.962,mlcm_experiment_whites_illusion,,2025.1.1,59.93883652202743,2025-08-20 16h08.35.618373 +0200,
0,0.75,0.58,1.0,0.0,imgs/white_0.75_0.58_1.0_0.0.png,0,0,0,right,1.4760537147521973,None,0,0,0,0,0.8972253799438477,,,,,,0.8938939571380615,1.3938424587249756,1.3938424587249756,2.880561351776123,right,1.4760537147521973,None,,,,2,GA6,2025-08-20_16h08.28.962,mlcm_experiment_whites_illusion,,2025.1.1,59.93883652202743,2025-08-20 16h08.35.618373 +0200,
1,0.5,0.5,1.0,0.0,imgs/white_0.5_0.5_1.0_0.0.png,1,1,0,right,0.5630390644073486,None,0,1,1,1,2.894686460494995,,,,,,2.8871450424194336,3.395199775695801,3.395199775695801,3.964784622192383,right,0.5630390644073486,None,,,,2,GA6,2025-08-20_16h08.28.962,mlcm_experiment_whites_illusion,,2025.1.1,59.93883652202743,2025-08-20 16h08.35.618373 +0200,
2,0.42,0.67,1.0,0.0,imgs/white_0.42_0.67_1.0_0.0.png,2,2,0,right,0.5584065914154053,None,0,2,2,2,3.979003429412842,,,,,,3.969604730606079,4.479583740234375,4.479583740234375,5.049447774887085,right,0.5584065914154053,None,,,,2,GA6,2025-08-20_16h08.28.962,mlcm_experiment_whites_illusion,,2025.1.1,59.93883652202743,2025-08-20 16h08.35.618373 +0200,
3,0.42,0.67,0.0,1.0,imgs/white_0.42_0.67_0.0_1.0.png,3,3,0,right,1.689873456954956,None,0,3,3,3,5.063157558441162,,,,,,5.054372072219849,5.563866376876831,5.563866376876831,7.2681050300598145,right,1.689873456954956,None,,,,2,GA6,2025-08-20_16h08.28.962,mlcm_experiment_whites_illusion,,2025.1.1,59.93883652202743,2025-08-20 16h08.35.618373 +0200,
4,0.42,0.75,0.0,1.0,imgs/white_0.42_0.75_0.0_1.0.png,4,4,0,right,0.8168597221374512,None,0,4,4,4,7.281788110733032,,,,,,7.275918245315552,7.781557083129883,7.781557083129883,8.602252960205078,right,0.8168597221374512,None,,,,2,GA6,2025-08-20_16h08.28.962,mlcm_experiment_whites_illusion,,2025.1.1,59.93883652202743,2025-08-20 16h08.35.618373 +0200,
5,0.33,0.67,0.0,1.0,imgs/white_0.33_0.67_0.0_1.0.png,5,5,0,right,0.737480878829956,None,0,5,5,5,8.61635947227478,,,,,,8.607721090316772,9.116673946380615,9.116673946380615,9.870066404342651,right,0.737480878829956,None,,,,2,GA6,2025-08-20_16h08.28.962,mlcm_experiment_whites_illusion,,2025.1.1,59.93883652202743,2025-08-20 16h08.35.618373 +0200,
6,0.75,0.75,1.0,0.0,imgs/white_0.75_0.75_1.0_0.0.png,6,6,0,right,2.3342130184173584,None,0,6,6,6,9.883769512176514,,,,,,9.877778053283691,10.384469032287598,10.384469032287598,12.722285270690918,right,2.3342130184173584,None,,,,2,GA6,2025-08-20_16h08.28.962,mlcm_experiment_whites_illusion,,2025.1.1,59.93883652202743,2025-08-20 16h08.35.618373 +0200,
7,0.42,0.67,1.0,0.0,imgs/white_0.42_0.67_1.0_0.0.png,7,7,0,right,0.5691235065460205,None,0,7,7,7,12.736188650131226,,,,,,12.730026721954346,13.236924648284912,13.236924648284912,13.820941925048828,right,0.5691235065460205,None,,,,2,GA6,2025-08-20_16h08.28.962,mlcm_experiment_whites_illusion,,2025.1.1,59.93883652202743,2025-08-20 16h08.35.618373 +0200,
8,0.75,0.33,1.0,0.0,imgs/white_0.75_0.33_1.0_0.0.png,8,8,0,left,0.8052568435668945,None,0,8,8,8,13.836552381515503,,,,,,13.824823379516602,14.321025848388672,14.321025848388672,15.141002893447876,left,0.8052568435668945,None,,,,2,GA6,2025-08-20_16h08.28.962,mlcm_experiment_whites_illusion,,2025.1.1,59.93883652202743,2025-08-20 16h08.35.618373 +0200,
9,0.33,0.33,1.0,0.0,imgs/white_0.33_0.33_1.0_0.0.png,9,9,0,right,1.078739881515503,None,0,9,9,9,15.154843091964722,,,,,,15.14589262008667,15.65570592880249,15.65570592880249,16.74222183227539,right,1.078739881515503,None,,,,2,GA6,2025-08-20_16h08.28.962,mlcm_experiment_whites_illusion,,2025.1.1,59.93883652202743,2025-08-20 16h08.35.618373 +0200,
10,0.75,0.58,0.0,1.0,imgs/white_0.75_0.58_0.0_1.0.png,10,10,0,left,0.5575816631317139,None,0,10,10,10,16.756328105926514,,,,,,16.747267246246338,17.256953954696655,17.256953954696655,17.826651096343994,left,0.5575816631317139,None,,,,2,GA6,2025-08-20_16h08.28.962,mlcm_experiment_whites_illusion,,2025.1.1,59.93883652202743,2025-08-20 16h08.35.618373 +0200,
11,0.42,0.75,1.0,0.0,imgs/white_0.42_0.75_1.0_0.0.png,11,11,0,right,0.6012153625488281,None,0,11,11,11,17.840559482574463,,,,,,17.83445143699646,18.341143369674683,18.341143369674683,18.961241006851196,right,0.6012153625488281,None,,,,2,GA6,2025-08-20_16h08.28.962,mlcm_experiment_whites_illusion,,2025.1.1,59.93883652202743,2025-08-20 16h08.35.618373 +0200,
12,0.25,0.5,0.0,1.0,imgs/white_0.25_0.5_0.0_1.0.png,12,12,0,right,1.0355768203735352,None,0,12,12,12,18.974910974502563,,,,,,18.96677303314209,19.475112676620483,19.475112676620483,20.528998374938965,right,1.0355768203735352,None,,,,2,GA6,2025-08-20_16h08.28.962,mlcm_experiment_whites_illusion,,2025.1.1,59.93883652202743,2025-08-20 16h08.35.618373 +0200,
13,0.75,0.75,1.0,0.0,imgs/white_0.75_0.75_1.0_0.0.png,13,13,0,right,0.5629627704620361,None,0,13,13,13,20.542993307113647,,,,,,20.534095287322998,21.0435733795166,21.0435733795166,21.61305022239685,right,0.5629627704620361,None,,,,2,GA6,2025-08-20_16h08.28.962,mlcm_experiment_whites_illusion,,2025.1.1,59.93883652202743,2025-08-20 16h08.35.618373 +0200,
14,0.75,0.67,1.0,0.0,imgs/white_0.75_0.67_1.0_0.0.png,14,14,0,right,0.6546409130096436,None,0,14,14,14,21.627365589141846,,,,,,21.617566108703613,22.127822399139404,22.127822399139404,22.79812979698181,right,0.6546409130096436,None,,,,2,GA6,2025-08-20_16h08.28.962,mlcm_experiment_whites_illusion,,2025.1.1,59.93883652202743,2025-08-20 16h08.35.618373 +0200,
15,0.25,0.33,1.0,0.0,imgs/white_0.25_0.33_1.0_0.0.png,15,15,0,right,0.5825278759002686,None,0,15,15,15,22.811416149139404,,,,,,22.805846214294434,23.312195539474487,23.312195539474487,23.898594856262207,right,0.5825278759002686,None,,,,2,GA6,2025-08-20_16h08.28.962,mlcm_experiment_whites_illusion,,2025.1.1,59.93883652202743,2025-08-20 16h08.35.618373 +0200,
16,0.42,0.5,1.0,0.0,imgs/white_0.42_0.5_1.0_0.0.png,16,16,0,right,0.5695149898529053,None,0,16,16,16,23.912506341934204,,,,,,23.903988361358643,24.412924766540527,24.412924766540527,24.999701976776123,right,0.5695149898529053,None,,,,2,GA6,2025-08-20_16h08.28.962,mlcm_experiment_whites_illusion,,2025.1.1,59.93883652202743,2025-08-20 16h08.35.618373 +0200,
17,0.25,0.58,1.0,0.0,imgs/white_0.25_0.58_1.0_0.0.png,17,17,0,right,0.612950325012207,None,0,17,17,17,25.013354778289795,,,,,,25.004960298538208,25.513688564300537,25.513688564300537,26.133419036865234,right,0.612950325012207,None,,,,2,GA6,2025-08-20_16h08.28.962,mlcm_experiment_whites_illusion,,2025.1.1,59.93883652202743,2025-08-20 16h08.35.618373 +0200,
18,0.33,0.58,0.0,1.0,imgs/white_0.33_0.58_0.0_1.0.png,18,18,0,left,1.6783792972564697,None,0,18,18,18,26.147626876831055,,,,,,26.13857913017273,26.648139715194702,26.648139715194702,28.3355131149292,left,1.6783792972564697,None,,,,2,GA6,2025-08-20_16h08.28.962,mlcm_experiment_whites_illusion,,2025.1.1,59.93883652202743,2025-08-20 16h08.35.618373 +0200,
19,0.25,0.58,1.0,0.0,imgs/white_0.25_0.58_1.0_0.0.png,19,19,0,right,0.48440074920654297,None,0,19,19,19,28.349297046661377,,,,,,28.343487977981567,28.850045919418335,28.850045919418335,29.352930545806885,right,0.48440074920654297,None,,,,2,GA6,2025-08-20_16h08.28.962,mlcm_experiment_whites_illusion,,2025.1.1,59.93883652202743,2025-08-20 16h08.35.618373 +0200,
20,0.42,0.25,1.0,0.0,imgs/white_0.42_0.25_1.0_0.0.png,20,20,0,left,0.7705738544464111,None,0,20,20,20,29.3668429851532,,,,,,29.35819411277771,29.86755609512329,29.86755609512329,30.654298305511475,left,0.7705738544464111,None,,,,2,GA6,2025-08-20_16h08.28.962,mlcm_experiment_whites_illusion,,2025.1.1,59.93883652202743,2025-08-20 16h08.35.618373 +0200,
21,0.58,0.58,1.0,0.0,imgs/white_0.58_0.58_1.0_0.0.png,21,21,0,right,0.6299445629119873,None,0,21,21,21,30.668083667755127,,,,,,30.658510446548462,31.168733596801758,31.168733596801758,31.80441975593567,right,0.6299445629119873,None,,,,2,GA6,2025-08-20_16h08.28.962,mlcm_experiment_whites_illusion,,2025.1.1,59.93883652202743,2025-08-20 16h08.35.618373 +0200,
22,0.5,0.25,0.0,1.0,imgs/white_0.5_0.25_0.0_1.0.png,22,22,0,left,0.6871216297149658,None,0,22,22,22,31.819004774093628,,,,,,31.811333417892456,32.3196120262146,32.3196120262146,33.02290916442871,left,0.6871216297149658,None,,,,2,GA6,2025-08-20_16h08.28.962,mlcm_experiment_whites_illusion,,2025.1.1,59.93883652202743,2025-08-20 16h08.35.618373 +0200,
23,0.25,0.58,0.0,1.0,imgs/white_0.25_0.58_0.0_1.0.png,23,23,0,right,0.9331696033477783,None,0,23,23,23,33.036824464797974,,,,,,33.028159379959106,33.53746581077576,33.53746581077576,34.47419238090515,right,0.9331696033477783,None,,,,2,GA6,2025-08-20_16h08.28.962,mlcm_experiment_whites_illusion,,2025.1.1,59.93883652202743,2025-08-20 16h08.35.618373 +0200,
24,0.42,0.33,0.0,1.0,imgs/white_0.42_0.33_0.0_1.0.png,24,24,0,left,0.7462258338928223,None,0,24,24,24,34.4882595539093,,,,,,34.479708671569824,34.98859119415283,34.98859119415283,35.741939306259155,left,0.7462258338928223,None,,,,2,GA6,2025-08-20_16h08.28.962,mlcm_experiment_whites_illusion,,2025.1.1,59.93883652202743,2025-08-20 16h08.35.618373 +0200,
25,0.5,0.5,1.0,0.0,imgs/white_0.5_0.5_1.0_0.0.png,25,25,0,right,0.6944587230682373,None,0,25,25,25,35.755850315093994,,,,,,35.7468478679657,36.25626587867737,36.25626587867737,36.95925521850586,right,0.6944587230682373,None,,,,2,GA6,2025-08-20_16h08.28.962,mlcm_experiment_whites_illusion,,2025.1.1,59.93883652202743,2025-08-20 16h08.35.618373 +0200,
26,0.67,0.58,0.0,1.0,imgs/white_0.67_0.58_0.0_1.0.png,26,26,0,left,0.7011392116546631,None,0,26,26,26,36.97360587120056,,,,,,36.96612596511841,37.47391605377197,37.47391605377197,38.19427132606506,left,0.7011392116546631,None,,,,2,GA6,2025-08-20_16h08.28.962,mlcm_experiment_whites_illusion,,2025.1.1,59.93883652202743,2025-08-20 16h08.35.618373 +0200,
27,0.5,0.75,1.0,0.0,imgs/white_0.5_0.75_1.0_0.0.png,27,27,0,right,0.6660716533660889,None,0,27,27,27,38.207751512527466,,,,,,38.20036506652832,38.708467960357666,38.708467960357666,39.37848234176636,right,0.6660716533660889,None,,,,2,GA6,2025-08-20_16h08.28.962,mlcm_experiment_whites_illusion,,2025.1.1,59.93883652202743,2025-08-20 16h08.35.618373 +0200,
28,0.5,0.75,0.0,1.0,imgs/white_0.5_0.75_0.0_1.0.png,28,28,0,right,1.817880392074585,None,0,28,28,28,39.392261028289795,,,,,,39.38365197181702,39.89284300804138,39.89284300804138,41.713523864746094,right,1.817880392074585,None,,,,2,GA6,2025-08-20_16h08.28.962,mlcm_experiment_whites_illusion,,2025.1.1,59.93883652202743,2025-08-20 16h08.35.618373 +0200,
29,0.67,0.5,1.0,0.0,imgs/white_0.67_0.5_1.0_0.0.png,29,29,0,left,1.9310719966888428,None,0,29,29,29,41.727635622024536,,,,,,41.721280336380005,42.22815155982971,42.22815155982971,44.165050983428955,left,1.9310719966888428,None,,,,2,GA6,2025-08-20_16h08.28.962,mlcm_experiment_whites_illusion,,2025.1.1,59.93883652202743,2025-08-20 16h08.35.618373 +0200,
30,0.67,0.5,0.0,1.0,imgs/white_0.67_0.5_0.0_1.0.png,30,30,0,left,0.5902600288391113,None,0,30,30,30,44.17944812774658,,,,,,44.17229986190796,44.68004035949707,44.68004035949707,45.28147292137146,left,0.5902600288391113,None,,,,2,GA6,2025-08-20_16h08.28.962,mlcm_experiment_whites_illusion,,2025.1.1,59.93883652202743,2025-08-20 16h08.35.618373 +0200,
31,0.42,0.42,1.0,0.0,imgs/white_0.42_0.42_1.0_0.0.png,31,31,0,right,1.1700553894042969,None,0,31,31,31,45.296531677246094,,,,,,45.285306453704834,45.781010150909424,45.781010150909424,46.968154430389404,right,1.1700553894042969,None,,,,2,GA6,2025-08-20_16h08.28.962,mlcm_experiment_whites_illusion,,2025.1.1,59.93883652202743,2025-08-20 16h08.35.618373 +0200,
32,0.33,0.5,1.0,0.0,imgs/white_0.33_0.5_1.0_0.0.png,32,32,0,right,0.5489566326141357,None,0,32,32,32,46.98192858695984,,,,,,46.976627588272095,47.482378244400024,47.482378244400024,48.035407066345215,right,0.5489566326141357,None,,,,2,GA6,2025-08-20_16h08.28.962,mlcm_experiment_whites_illusion,,2025.1.1,59.93883652202743,2025-08-20 16h08.35.618373 +0200,
33,0.5,0.67,1.0,0.0,imgs/white_0.5_0.67_1.0_0.0.png,33,33,0,right,0.5686943531036377,None,0,33,33,33,48.04983830451965,,,,,,48.04096174240112,48.550023317337036,48.550023317337036,49.13660001754761,right,0.5686943531036377,None,,,,2,GA6,2025-08-20_16h08.28.962,mlcm_experiment_whites_illusion,,2025.1.1,59.93883652202743,2025-08-20 16h08.35.618373 +0200,
34,0.67,0.67,0.0,1.0,imgs/white_0.67_0.67_0.0_1.0.png,34,34,0,left,0.7080690860748291,None,0,34,34,34,49.15043020248413,,,,,,49.14254283905029,49.65099239349365,49.65099239349365,50.37116980552673,left,0.7080690860748291,None,,,,2,GA6,2025-08-20_16h08.28.962,mlcm_experiment_whites_illusion,,2025.1.1,59.93883652202743,2025-08-20 16h08.35.618373 +0200,
35,0.25,0.75,0.0,1.0,imgs/white_0.25_0.75_0.0_1.0.png,35,35,0,right,0.7776789665222168,None,0,35,35,35,50.384706258773804,,,,,,50.37662672996521,50.88542103767395,50.88542103767395,51.67181658744812,right,0.7776789665222168,None,,,,2,GA6,2025-08-20_16h08.28.962,mlcm_experiment_whites_illusion,,2025.1.1,59.93883652202743,2025-08-20 16h08.35.618373 +0200,
36,0.75,0.33,0.0,1.0,imgs/white_0.75_0.33_0.0_1.0.png,36,36,0,left,1.5728213787078857,None,0,36,36,36,51.68596029281616,,,,,,51.67702388763428,52.186381340026855,52.186381340026855,53.77247953414917,left,1.5728213787078857,None,,,,2,GA6,2025-08-20_16h08.28.962,mlcm_experiment_whites_illusion,,2025.1.1,59.93883652202743,2025-08-20 16h08.35.618373 +0200,
37,0.5,0.58,0.0,1.0,imgs/white_0.5_0.58_0.0_1.0.png,37,37,0,left,1.390441656112671,None,0,37,37,37,53.78741264343262,,,,,,53.78034234046936,54.288450479507446,54.288450479507446,55.692370653152466,left,1.390441656112671,None,,,,2,GA6,2025-08-20_16h08.28.962,mlcm_experiment_whites_illusion,,2025.1.1,59.93883652202743,2025-08-20 16h08.35.618373 +0200,
38,0.5,0.67,0.0,1.0,imgs/white_0.5_0.67_0.0_1.0.png,38,38,0,left,0.86472487449646,None,0,38,38,38,55.706063985824585,,,,,,55.69766330718994,56.20650672912598,56.20650672912598,57.07623362541199,left,0.86472487449646,None,,,,2,GA6,2025-08-20_16h08.28.962,mlcm_experiment_whites_illusion,,2025.1.1,59.93883652202743,2025-08-20 16h08.35.618373 +0200,
39,0.33,0.58,1.0,0.0,imgs/white_0.33_0.58_1.0_0.0.png,39,39,0,right,0.6720097064971924,None,0,39,39,39,57.090458393096924,,,,,,57.08344531059265,57.59098291397095,57.59098291397095,58.27776622772217,right,0.6720097064971924,None,,,,2,GA6,2025-08-20_16h08.28.962,mlcm_experiment_whites_illusion,,2025.1.1,59.93883652202743,2025-08-20 16h08.35.618373 +0200,
40,0.67,0.33,1.0,0.0,imgs/white_0.67_0.33_1.0_0.0.png,40,40,0,left,0.8390922546386719,None,0,40,40,40,58.29141306877136,,,,,,58.28322196006775,58.79197907447815,58.79197907447815,59.64578819274902,left,0.8390922546386719,None,,,,2,GA6,2025-08-20_16h08.28.962,mlcm_experiment_whites_illusion,,2025.1.1,59.93883652202743,2025-08-20 16h08.35.618373 +0200,
41,0.33,0.5,0.0,1.0,imgs/white_0.33_0.5_0.0_1.0.png,41,41,0,left,0.7192432880401611,None,0,41,41,41,59.65942454338074,,,,,,59.65089702606201,60.15980625152588,60.15980625152588,60.8967010974884,left,0.7192432880401611,None,,,,2,GA6,2025-08-20_16h08.28.962,mlcm_experiment_whites_illusion,,2025.1.1,59.93883652202743,2025-08-20 16h08.35.618373 +0200,
42,0.75,0.42,0.0,1.0,imgs/white_0.75_0.42_0.0_1.0.png,42,42,0,left,0.5243368148803711,None,0,42,42,42,60.91031193733215,,,,,,60.9045786857605,61.41103744506836,61.41103744506836,61.947617053985596,left,0.5243368148803711,None,,,,2,GA6,2025-08-20_16h08.28.962,mlcm_experiment_whites_illusion,,2025.1.1,59.93883652202743,2025-08-20 16h08.35.618373 +0200,
43,0.58,0.67,0.0,1.0,imgs/white_0.58_0.67_0.0_1.0.png,43,43,0,left,1.5613644123077393,None,0,43,43,43,61.96107482910156,,,,,,61.953463554382324,62.46188306808472,62.46188306808472,64.03210020065308,left,1.5613644123077393,None,,,,2,GA6,2025-08-20_16h08.28.962,mlcm_experiment_whites_illusion,,2025.1.1,59.93883652202743,2025-08-20 16h08.35.618373 +0200,
44,0.58,0.58,0.0,1.0,imgs/white_0.58_0.58_0.0_1.0.png,44,44,0,left,0.5724391937255859,None,0,44,44,44,64.04612064361572,,,,,,64.03978967666626,64.54676246643066,64.54676246643066,65.13405632972717,left,0.5724391937255859,None,,,,2,GA6,2025-08-20_16h08.28.962,mlcm_experiment_whites_illusion,,2025.1.1,59.93883652202743,2025-08-20 16h08.35.618373 +0200,
45,0.58,0.42,1.0,0.0,imgs/white_0.58_0.42_1.0_0.0.png,45,45,0,left,1.127300500869751,None,0,45,45,45,65.14722466468811,,,,,,65.14011430740356,65.64777374267578,65.64777374267578,66.7844135761261,left,1.127300500869751,None,,,,2,GA6,2025-08-20_16h08.28.962,mlcm_experiment_whites_illusion,,2025.1.1,59.93883652202743,2025-08-20 16h08.35.618373 +0200,
46,0.75,0.67,0.0,1.0,imgs/white_0.75_0.67_0.0_1.0.png,46,46,0,left,0.49979519844055176,None,0,46,46,46,66.79854559898376,,,,,,66.79210019111633,67.29919648170471,67.29919648170471,67.80047917366028,left,0.49979519844055176,None,,,,2,GA6,2025-08-20_16h08.28.962,mlcm_experiment_whites_illusion,,2025.1.1,59.93883652202743,2025-08-20 16h08.35.618373 +0200,
47,0.58,0.67,1.0,0.0,imgs/white_0.58_0.67_1.0_0.0.png,47,47,0,right,0.5546538829803467,None,0,47,47,47,67.81614279747009,,,,,,67.8030755519867,68.31666564941406,68.31666564941406,68.88679695129395,right,0.5546538829803467,None,,,,2,GA6,2025-08-20_16h08.28.962,mlcm_experiment_whites_illusion,,2025.1.1,59.93883652202743,2025-08-20 16h08.35.618373 +0200,
48,0.58,0.5,0.0,1.0,imgs/white_0.58_0.5_0.0_1.0.png,48,48,0,left,0.7743837833404541,None,0,48,48,48,68.90050339698792,,,,,,68.89158987998962,69.40092825889587,69.40092825889587,70.18761777877808,left,0.7743837833404541,None,,,,2,GA6,2025-08-20_16h08.28.962,mlcm_experiment_whites_illusion,,2025.1.1,59.93883652202743,2025-08-20 16h08.35.618373 +0200,
49,0.25,0.58,0.0,1.0,imgs/white_0.25_0.58_0.0_1.0.png,49,49,0,right,0.7455706596374512,None,0,49,49,49,70.20155620574951,,,,,,70.19302701950073,70.70201539993286,70.70201539993286,71.4546959400177,right,0.7455706596374512,None,,,,2,GA6,2025-08-20_16h08.28.962,mlcm_experiment_whites_illusion,,2025.1.1,59.93883652202743,2025-08-20 16h08.35.618373 +0200,
50,0.25,0.67,0.0,1.0,imgs/white_0.25_0.67_0.0_1.0.png,50,50,0,right,0.8215444087982178,None,0,50,50,50,71.46923589706421,,,,,,71.45895981788635,71.9696798324585,71.9696798324585,72.8065984249115,right,0.8215444087982178,None,,,,2,GA6,2025-08-20_16h08.28.962,mlcm_experiment_whites_illusion,,2025.1.1,59.93883652202743,2025-08-20 16h08.35.618373 +0200,
51,0.25,0.25,1.0,0.0,imgs/white_0.25_0.25_1.0_0.0.png,51,51,0,right,1.1342685222625732,None,0,51,51,51,72.82019448280334,,,,,,72.8147451877594,73.32108449935913,73.32108449935913,74.45875644683838,right,1.1342685222625732,None,,,,2,GA6,2025-08-20_16h08.28.962,mlcm_experiment_whites_illusion,,2025.1.1,59.93883652202743,2025-08-20 16h08.35.618373 +0200,
52,0.33,0.58,1.0,0.0,imgs/white_0.33_0.58_1.0_0.0.png,52,52,0,right,0.5070128440856934,None,0,52,52,52,74.47190856933594,,,,,,74.46365308761597,74.97239804267883,74.97239804267883,75.49202919006348,right,0.5070128440856934,None,,,,2,GA6,2025-08-20_16h08.28.962,mlcm_experiment_whites_illusion,,2025.1.1,59.93883652202743,2025-08-20 16h08.35.618373 +0200,
53,0.75,0.5,1.0,0.0,imgs/white_0.75_0.5_1.0_0.0.png,53,53,0,left,1.1609976291656494,None,0,53,53,53,75.50582790374756,,,,,,75.49718856811523,76.00657510757446,76.00657510757446,77.1769540309906,left,1.1609976291656494,None,,,,2,GA6,2025-08-20_16h08.28.962,mlcm_experiment_whites_illusion,,2025.1.1,59.93883652202743,2025-08-20 16h08.35.618373 +0200,
54,0.5,0.25,1.0,0.0,imgs/white_0.5_0.25_1.0_0.0.png,54,54,0,left,0.5400123596191406,None,0,54,54,54,77.19064378738403,,,,,,77.18409657478333,77.69132661819458,77.69132661819458,78.24394392967224,left,0.5400123596191406,None,,,,2,GA6,2025-08-20_16h08.28.962,mlcm_experiment_whites_illusion,,2025.1.1,59.93883652202743,2025-08-20 16h08.35.618373 +0200,
55,0.67,0.75,0.0,1.0,imgs/white_0.67_0.75_0.0_1.0.png,55,55,0,left,0.5443625450134277,None,0,55,55,55,78.25827717781067,,,,,,78.24911403656006,78.75884342193604,78.75884342193604,79.31125783920288,left,0.5443625450134277,None,,,,2,GA6,2025-08-20_16h08.28.962,mlcm_experiment_whites_illusion,,2025.1.1,59.93883652202743,2025-08-20 16h08.35.618373 +0200,
56,0.42,0.58,1.0,0.0,imgs/white_0.42_0.58_1.0_0.0.png,56,56,0,right,0.4766683578491211,None,0,56,56,56,79.32581567764282,,,,,,79.31709814071655,79.82652401924133,79.82652401924133,80.31223654747009,right,0.4766683578491211,None,,,,2,GA6,2025-08-20_16h08.28.962,mlcm_experiment_whites_illusion,,2025.1.1,59.93883652202743,2025-08-20 16h08.35.618373 +0200,
57,0.67,0.58,1.0,0.0,imgs/white_0.67_0.58_1.0_0.0.png,57,57,0,right,0.5880725383758545,None,0,57,57,57,80.3266441822052,,,,,,80.31769919395447,80.82730388641357,80.82730388641357,81.43011426925659,right,0.5880725383758545,None,,,,2,GA6,2025-08-20_16h08.28.962,mlcm_experiment_whites_illusion,,2025.1.1,59.93883652202743,2025-08-20 16h08.35.618373 +0200,
58,0.58,0.75,1.0,0.0,imgs/white_0.58_0.75_1.0_0.0.png,58,58,0,right,0.5426473617553711,None,0,58,58,58,81.44428324699402,,,,,,81.43527460098267,81.94489240646362,81.94489240646362,82.4981427192688,right,0.5426473617553711,None,,,,2,GA6,2025-08-20_16h08.28.962,mlcm_experiment_whites_illusion,,2025.1.1,59.93883652202743,2025-08-20 16h08.35.618373 +0200,
59,0.75,0.58,1.0,0.0,imgs/white_0.75_0.58_1.0_0.0.png,59,59,0,left,1.1471869945526123,None,0,59,59,59,82.51199269294739,,,,,,82.5035719871521,83.01238417625427,83.01238417625427,84.16567039489746,left,1.1471869945526123,None,,,,2,GA6,2025-08-20_16h08.28.962,mlcm_experiment_whites_illusion,,2025.1.1,59.93883652202743,2025-08-20 16h08.35.618373 +0200,
60,0.75,0.67,0.0,1.0,imgs/white_0.75_0.67_0.0_1.0.png,60,60,0,left,0.6872479915618896,None,0,60,60,60,84.17996501922607,,,,,,84.17229700088501,84.68038964271545,84.68038964271545,85.38429260253906,left,0.6872479915618896,None,,,,2,GA6,2025-08-20_16h08.28.962,mlcm_experiment_whites_illusion,,2025.1.1,59.93883652202743,2025-08-20 16h08.35.618373 +0200,
61,0.42,0.25,1.0,0.0,imgs/white_0.42_0.25_1.0_0.0.png,61,61,0,left,0.6539373397827148,None,0,61,61,61,85.39780497550964,,,,,,85.3897271156311,85.89772033691406,85.89772033691406,86.5683798789978,left,0.6539373397827148,None,,,,2,GA6,2025-08-20_16h08.28.962,mlcm_experiment_whites_illusion,,2025.1.1,59.93883652202743,2025-08-20 16h08.35.618373 +0200,
62,0.5,0.42,1.0,0.0,imgs/white_0.5_0.42_1.0_0.0.png,62,62,0,right,2.325782060623169,None,0,62,62,62,86.58206582069397,,,,,,86.57375693321228,87.08195614814758,87.08195614814758,89.42030167579651,right,2.325782060623169,None,,,,2,GA6,2025-08-20_16h08.28.962,mlcm_experiment_whites_illusion,,2025.1.1,59.93883652202743,2025-08-20 16h08.35.618373 +0200,
63,0.42,0.42,0.0,1.0,imgs/white_0.42_0.42_0.0_1.0.png,63,63,0,left,0.5688014030456543,None,0,63,63,63,89.43438577651978,,,,,,89.42739367485046,89.93487691879272,89.93487691879272,90.5216293334961,left,0.5688014030456543,None,,,,2,GA6,2025-08-20_16h08.28.962,mlcm_experiment_whites_illusion,,2025.1.1,59.93883652202743,2025-08-20 16h08.35.618373 +0200,
64,0.25,0.42,1.0,0.0,imgs/white_0.25_0.42_1.0_0.0.png,64,64,0,right,0.8757708072662354,None,0,64,64,64,90.53546690940857,,,,,,90.52665591239929,91.03605151176453,91.03605151176453,91.92268419265747,right,0.8757708072662354,None,,,,2,GA6,2025-08-20_16h08.28.962,mlcm_experiment_whites_illusion,,2025.1.1,59.93883652202743,2025-08-20 16h08.35.618373 +0200,
65,0.25,0.67,1.0,0.0,imgs/white_0.25_0.67_1.0_0.0.png,65,65,0,right,0.5307512283325195,None,0,65,65,65,91.93652653694153,,,,,,91.93006467819214,92.43711280822754,92.43711280822754,92.97340774536133,right,0.5307512283325195,None,,,,2,GA6,2025-08-20_16h08.28.962,mlcm_experiment_whites_illusion,,2025.1.1,59.93883652202743,2025-08-20 16h08.35.618373 +0200,
66,0.25,0.25,0.0,1.0,imgs/white_0.25_0.25_0.0_1.0.png,66,66,0,left,1.1358840465545654,None,0,66,66,66,92.98754167556763,,,,,,92.97788691520691,93.48789644241333,93.48789644241333,94.64139199256897,left,1.1358840465545654,None,,,,2,GA6,2025-08-20_16h08.28.962,mlcm_experiment_whites_illusion,,2025.1.1,59.93883652202743,2025-08-20 16h08.35.618373 +0200,
67,0.75,0.5,0.0,1.0,imgs/white_0.75_0.5_0.0_1.0.png,67,67,0,left,0.5394902229309082,None,0,67,67,67,94.65556788444519,,,,,,94.64582371711731,95.15607476234436,95.15607476234436,95.70910501480103,left,0.5394902229309082,None,,,,2,GA6,2025-08-20_16h08.28.962,mlcm_experiment_whites_illusion,,2025.1.1,59.93883652202743,2025-08-20 16h08.35.618373 +0200,
68,0.42,0.25,0.0,1.0,imgs/white_0.42_0.25_0.0_1.0.png,68,68,0,left,0.7123708724975586,None,0,68,68,68,95.72287201881409,,,,,,95.71440958976746,96.22362804412842,96.22362804412842,96.94362545013428,left,0.7123708724975586,None,,,,2,GA6,2025-08-20_16h08.28.962,mlcm_experiment_whites_illusion,,2025.1.1,59.93883652202743,2025-08-20 16h08.35.618373 +0200,
69,0.67,0.33,0.0,1.0,imgs/white_0.67_0.33_0.0_1.0.png,69,69,0,left,0.4938986301422119,None,0,69,69,69,96.95746111869812,,,,,,96.95091581344604,97.45799207687378,97.45799207687378,97.9608473777771,left,0.4938986301422119,None,,,,2,GA6,2025-08-20_16h08.28.962,mlcm_experiment_whites_illusion,,2025.1.1,59.93883652202743,2025-08-20 16h08.35.618373 +0200,
70,0.75,0.25,0.0,1.0,imgs/white_0.75_0.25_0.0_1.0.png,70,70,0,left,0.6201472282409668,None,0,70,70,70,97.97507929801941,,,,,,97.96586871147156,98.47558832168579,98.47558832168579,99.11259865760803,left,0.6201472282409668,None,,,,2,GA6,2025-08-20_16h08.28.962,mlcm_experiment_whites_illusion,,2025.1.1,59.93883652202743,2025-08-20 16h08.35.618373 +0200,
71,0.42,0.33,1.0,0.0,imgs/white_0.42_0.33_1.0_0.0.png,71,71,0,right,1.7892239093780518,None,0,71,71,71,99.1258807182312,,,,,,99.11883807182312,99.62641930580139,99.62641930580139,101.43061113357544,right,1.7892239093780518,None,,,,2,GA6,2025-08-20_16h08.28.962,mlcm_experiment_whites_illusion,,2025.1.1,59.93883652202743,2025-08-20 16h08.35.618373 +0200,
72,0.25,0.33,1.0,0.0,imgs/white_0.25_0.33_1.0_0.0.png,72,72,0,right,0.6148648262023926,None,0,72,72,72,101.44462728500366,,,,,,101.43804860115051,101.9450421333313,101.9450421333313,102.56544542312622,right,0.6148648262023926,None,,,,2,GA6,2025-08-20_16h08.28.962,mlcm_experiment_whites_illusion,,2025.1.1,59.93883652202743,2025-08-20 16h08.35.618373 +0200,
73,0.67,0.67,1.0,0.0,imgs/white_0.67_0.67_1.0_0.0.png,73,73,0,right,0.880791187286377,None,0,73,73,73,102.57889604568481,,,,,,102.5701858997345,103.07932662963867,103.07932662963867,103.96550846099854,right,0.880791187286377,None,,,,2,GA6,2025-08-20_16h08.28.962,mlcm_experiment_whites_illusion,,2025.1.1,59.93883652202743,2025-08-20 16h08.35.618373 +0200,
74,0.33,0.33,1.0,0.0,imgs/white_0.33_0.33_1.0_0.0.png,74,74,0,right,0.9513227939605713,None,0,74,74,74,103.98001956939697,,,,,,103.97178244590759,104.48047804832458,104.48047804832458,105.45004367828369,right,0.9513227939605713,None,,,,2,GA6,2025-08-20_16h08.28.962,mlcm_experiment_whites_illusion,,2025.1.1,59.93883652202743,2025-08-20 16h08.35.618373 +0200,
75,0.33,0.42,1.0,0.0,imgs/white_0.33_0.42_1.0_0.0.png,75,75,0,right,0.5228679180145264,None,0,75,75,75,105.46459698677063,,,,,,105.45471382141113,105.9651141166687,105.9651141166687,106.5014157295227,right,0.5228679180145264,None,,,,2,GA6,2025-08-20_16h08.28.962,mlcm_experiment_whites_illusion,,2025.1.1,59.93883652202743,2025-08-20 16h08.35.618373 +0200,
76,0.58,0.5,1.0,0.0,imgs/white_0.58_0.5_1.0_0.0.png,76,76,0,right,2.143935441970825,None,0,76,76,76,106.51526618003845,,,,,,106.50664925575256,107.01620054244995,107.01620054244995,109.17114400863647,right,2.143935441970825,None,,,,2,GA6,2025-08-20_16h08.28.962,mlcm_experiment_whites_illusion,,2025.1.1,59.93883652202743,2025-08-20 16h08.35.618373 +0200,
77,0.42,0.33,1.0,0.0,imgs/white_0.42_0.33_1.0_0.0.png,77,77,0,left,1.715193748474121,None,0,77,77,77,109.1843695640564,,,,,,109.17898797988892,109.68493938446045,109.68493938446045,111.40579199790955,left,1.715193748474121,None,,,,2,GA6,2025-08-20_16h08.28.962,mlcm_experiment_whites_illusion,,2025.1.1,59.93883652202743,2025-08-20 16h08.35.618373 +0200,
78,0.42,0.5,1.0,0.0,imgs/white_0.42_0.5_1.0_0.0.png,78,78,0,right,0.4641101360321045,None,0,78,78,78,111.41971254348755,,,,,,111.41308927536011,111.92019057273865,111.92019057273865,112.39002203941345,right,0.4641101360321045,None,,,,2,GA6,2025-08-20_16h08.28.962,mlcm_experiment_whites_illusion,,2025.1.1,59.93883652202743,2025-08-20 16h08.35.618373 +0200,
79,0.75,0.42,1.0,0.0,imgs/white_0.75_0.42_1.0_0.0.png,79,79,0,left,0.6555483341217041,None,0,79,79,79,112.40399980545044,,,,,,112.39570593833923,112.90432476997375,112.90432476997375,113.57402610778809,left,0.6555483341217041,None,,,,2,GA6,2025-08-20_16h08.28.962,mlcm_experiment_whites_illusion,,2025.1.1,59.93883652202743,2025-08-20 16h08.35.618373 +0200,
80,0.25,0.67,1.0,0.0,imgs/white_0.25_0.67_1.0_0.0.png,80,80,0,right,0.4717288017272949,None,0,80,80,80,113.58795166015625,,,,,,113.57903933525085,114.08843183517456,114.08843183517456,114.57545518875122,right,0.4717288017272949,None,,,,2,GA6,2025-08-20_16h08.28.962,mlcm_experiment_whites_illusion,,2025.1.1,59.93883652202743,2025-08-20 16h08.35.618373 +0200,
81,0.75,0.33,1.0,0.0,imgs/white_0.75_0.33_1.0_0.0.png,81,81,0,left,0.6223804950714111,None,0,81,81,81,114.58906126022339,,,,,,114.58110976219177,115.08966040611267,115.08966040611267,115.7258870601654,left,0.6223804950714111,None,,,,2,GA6,2025-08-20_16h08.28.962,mlcm_experiment_whites_illusion,,2025.1.1,59.93883652202743,2025-08-20 16h08.35.618373 +0200,
82,0.33,0.5,1.0,0.0,imgs/white_0.33_0.5_1.0_0.0.png,82,82,0,right,0.46399617195129395,None,0,82,82,82,115.7398567199707,,,,,,115.73116874694824,116.24032640457153,116.24032640457153,116.70998525619507,right,0.46399617195129395,None,,,,2,GA6,2025-08-20_16h08.28.962,mlcm_experiment_whites_illusion,,2025.1.1,59.93883652202743,2025-08-20 16h08.35.618373 +0200,
83,0.33,0.25,1.0,0.0,imgs/white_0.33_0.25_1.0_0.0.png,83,83,0,right,1.0318753719329834,None,0,83,83,83,116.72418880462646,,,,,,116.71530675888062,117.22457575798035,117.22457575798035,118.26160430908203,right,1.0318753719329834,None,,,,2,GA6,2025-08-20_16h08.28.962,mlcm_experiment_whites_illusion,,2025.1.1,59.93883652202743,2025-08-20 16h08.35.618373 +0200,
84,0.5,0.42,1.0,0.0,imgs/white_0.5_0.42_1.0_0.0.png,84,84,0,left,1.9046156406402588,None,0,84,84,84,118.2753677368164,,,,,,118.26912641525269,118.77590680122375,118.77590680122375,120.69724607467651,left,1.9046156406402588,None,,,,2,GA6,2025-08-20_16h08.28.962,mlcm_experiment_whites_illusion,,2025.1.1,59.93883652202743,2025-08-20 16h08.35.618373 +0200,
85,0.75,0.25,1.0,0.0,imgs/white_0.75_0.25_1.0_0.0.png,85,85,0,left,0.5810427665710449,None,0,85,85,85,120.71078300476074,,,,,,120.70530986785889,121.2112545967102,121.2112545967102,121.79732298851013,left,0.5810427665710449,None,,,,2,GA6,2025-08-20_16h08.28.962,mlcm_experiment_whites_illusion,,2025.1.1,59.93883652202743,2025-08-20 16h08.35.618373 +0200,
86,0.33,0.67,1.0,0.0,imgs/white_0.33_0.67_1.0_0.0.png,86,86,0,right,0.7600634098052979,None,0,86,86,86,121.81174969673157,,,,,,121.80455350875854,122.31233072280884,122.31233072280884,123.08181953430176,right,0.7600634098052979,None,,,,2,GA6,2025-08-20_16h08.28.962,mlcm_experiment_whites_illusion,,2025.1.1,59.93883652202743,2025-08-20 16h08.35.618373 +0200,
87,0.42,0.67,0.0,1.0,imgs/white_0.42_0.67_0.0_1.0.png,87,87,0,right,1.1799042224884033,None,0,87,87,87,123.09614682197571,,,,,,123.08636546134949,123.59660768508911,123.59660768508911,124.78360342979431,right,1.1799042224884033,None,,,,2,GA6,2025-08-20_16h08.28.962,mlcm_experiment_whites_illusion,,2025.1.1,59.93883652202743,2025-08-20 16h08.35.618373 +0200,
88,0.33,0.25,1.0,0.0,imgs/white_0.33_0.25_1.0_0.0.png,88,88,0,left,0.6382746696472168,None,0,88,88,88,124.79733347892761,,,,,,124.79120206832886,125.29804420471191,125.29804420471191,125.9512345790863,left,0.6382746696472168,None,,,,2,GA6,2025-08-20_16h08.28.962,mlcm_experiment_whites_illusion,,2025.1.1,59.93883652202743,2025-08-20 16h08.35.618373 +0200,
89,0.33,0.58,0.0,1.0,imgs/white_0.33_0.58_0.0_1.0.png,89,89,0,left,0.8467545509338379,None,0,89,89,89,125.9653000831604,,,,,,125.95626711845398,126.46568870544434,126.46568870544434,127.31816816329956,left,0.8467545509338379,None,,,,2,GA6,2025-08-20_16h08.28.962,mlcm_experiment_whites_illusion,,2025.1.1,59.93883652202743,2025-08-20 16h08.35.618373 +0200,
90,0.33,0.5,0.0,1.0,imgs/white_0.33_0.5_0.0_1.0.png,90,90,0,right,1.5512263774871826,None,0,90,90,90,127.33346462249756,,,,,,127.32203507423401,127.83314681053162,127.83314681053162,129.3875162601471,right,1.5512263774871826,None,,,,2,GA6,2025-08-20_16h08.28.962,mlcm_experiment_whites_illusion,,2025.1.1,59.93883652202743,2025-08-20 16h08.35.618373 +0200,
91,0.42,0.58,1.0,0.0,imgs/white_0.42_0.58_1.0_0.0.png,91,91,0,right,0.5223822593688965,None,0,91,91,91,129.40166568756104,,,,,,129.39560866355896,129.9020049571991,129.9020049571991,130.43839478492737,right,0.5223822593688965,None,,,,2,GA6,2025-08-20_16h08.28.962,mlcm_experiment_whites_illusion,,2025.1.1,59.93883652202743,2025-08-20 16h08.35.618373 +0200,
92,0.25,0.67,0.0,1.0,imgs/white_0.25_0.67_0.0_1.0.png,92,92,0,right,0.5997002124786377,None,0,92,92,92,130.45245838165283,,,,,,130.4437222480774,130.95281410217285,130.95281410217285,131.55604219436646,right,0.5997002124786377,None,,,,2,GA6,2025-08-20_16h08.28.962,mlcm_experiment_whites_illusion,,2025.1.1,59.93883652202743,2025-08-20 16h08.35.618373 +0200,
93,0.42,0.58,0.0,1.0,imgs/white_0.42_0.58_0.0_1.0.png,93,93,0,left,0.9460184574127197,None,0,93,93,93,131.56999492645264,,,,,,131.5612335205078,132.0706388950348,132.0706388950348,133.0236780643463,left,0.9460184574127197,None,,,,2,GA6,2025-08-20_16h08.28.962,mlcm_experiment_whites_illusion,,2025.1.1,59.93883652202743,2025-08-20 16h08.35.618373 +0200,
94,0.25,0.5,1.0,0.0,imgs/white_0.25_0.5_1.0_0.0.png,94,94,0,right,0.5262517929077148,None,0,94,94,94,133.03779482841492,,,,,,133.03135752677917,133.53834104537964,133.53834104537964,134.07496738433838,right,0.5262517929077148,None,,,,2,GA6,2025-08-20_16h08.28.962,mlcm_experiment_whites_illusion,,2025.1.1,59.93883652202743,2025-08-20 16h08.35.618373 +0200,
95,0.33,0.75,1.0,0.0,imgs/white_0.33_0.75_1.0_0.0.png,95,95,0,right,0.5070173740386963,None,0,95,95,95,134.08885788917542,,,,,,134.0801224708557,134.5893051624298,134.5893051624298,135.10900712013245,right,0.5070173740386963,None,,,,2,GA6,2025-08-20_16h08.28.962,mlcm_experiment_whites_illusion,,2025.1.1,59.93883652202743,2025-08-20 16h08.35.618373 +0200,
96,0.25,0.75,1.0,0.0,imgs/white_0.25_0.75_1.0_0.0.png,96,96,0,right,0.4888451099395752,None,0,96,96,96,135.1230912208557,,,,,,135.11443066596985,135.62348437309265,135.62348437309265,136.1268048286438,right,0.4888451099395752,None,,,,2,GA6,2025-08-20_16h08.28.962,mlcm_experiment_whites_illusion,,2025.1.1,59.93883652202743,2025-08-20 16h08.35.618373 +0200,
97,0.5,0.58,1.0,0.0,imgs/white_0.5_0.58_1.0_0.0.png,97,97,0,right,0.5594267845153809,None,0,97,97,97,136.14040899276733,,,,,,136.1321849822998,136.64119243621826,136.64119243621826,137.21082401275635,right,0.5594267845153809,None,,,,2,GA6,2025-08-20_16h08.28.962,mlcm_experiment_whites_illusion,,2025.1.1,59.93883652202743,2025-08-20 16h08.35.618373 +0200,
,,,,,,,,,,,,,,,,,,,,,,,,,,,,,137.2664270401001,137.27041244506836,139.22557735443115,2,GA6,2025-08-20_16h08.28.962,mlcm_experiment_whites_illusion,,2025.1.1,59.93883652202743,2025-08-20 16h08.35.618373 +0200,
