instruct.started,instruct.stopped,session,participant,date,expName,psychopyVersion,OS,frameRate,trial.started,trial.stopped,resp.keys,resp.rt,resp.duration,trials.thisRepN,trials.thisTrialN,trials.thisN,trials.thisIndex,trials.ran,trial,s1,s2,s3,im1,im2,im3,thanks.started,thanks.stopped
0,10.851,1,ch,2025-08-18_17h09.56.732,mlds_experiment_numerosity_triads,2025.1.1,MacIntel,59.95203837,,,,,,,,,,,,,,,,,,,
,,1,ch,2025-08-18_17h09.56.732,mlds_experiment_numerosity_triads,2025.1.1,MacIntel,59.95203837,10.86,15.916,right,4.527,,0,0,0,0,1,0,60,20,5,s_60_r_2.png,s_20_r_7.png,s_5_r_6.png,,
,,1,ch,2025-08-18_17h09.56.732,mlds_experiment_numerosity_triads,2025.1.1,MacIntel,59.95203837,15.919,20.667,left,4.205,,0,1,1,1,1,1,50,33,10,s_50_r_2.png,s_33_r_8.png,s_10_r_3.png,,
,,1,ch,2025-08-18_17h09.56.732,mlds_experiment_numerosity_triads,2025.1.1,MacIntel,59.95203837,20.669,22.984,right,1.776,,0,2,2,2,1,2,60,10,5,s_60_r_5.png,s_10_r_8.png,s_5_r_2.png,,
,,1,ch,2025-08-18_17h09.56.732,mlds_experiment_numerosity_triads,2025.1.1,MacIntel,59.95203837,22.986,25.284,right,1.758,,0,3,3,3,1,3,10,33,60,s_10_r_3.png,s_33_r_8.png,s_60_r_9.png,,
,,1,ch,2025-08-18_17h09.56.732,mlds_experiment_numerosity_triads,2025.1.1,MacIntel,59.95203837,25.286,28.967,right,3.141,,0,4,4,4,1,4,5,33,60,s_5_r_2.png,s_33_r_4.png,s_60_r_10.png,,
,,1,ch,2025-08-18_17h09.56.732,mlds_experiment_numerosity_triads,2025.1.1,MacIntel,59.95203837,28.969,31.366,left,1.858,,0,5,5,5,1,5,10,15,33,s_10_r_10.png,s_15_r_7.png,s_33_r_8.png,,
,,1,ch,2025-08-18_17h09.56.732,mlds_experiment_numerosity_triads,2025.1.1,MacIntel,59.95203837,31.368,35.752,left,3.867,,0,6,6,6,1,6,20,15,5,s_20_r_7.png,s_15_r_8.png,s_5_r_7.png,,
,,1,ch,2025-08-18_17h09.56.732,mlds_experiment_numerosity_triads,2025.1.1,MacIntel,59.95203837,35.756,37.283,right,0.991,,0,7,7,7,1,7,5,33,50,s_5_r_4.png,s_33_r_2.png,s_50_r_1.png,,
,,1,ch,2025-08-18_17h09.56.732,mlds_experiment_numerosity_triads,2025.1.1,MacIntel,59.95203837,37.286,39.367,left,1.539,,0,8,8,8,1,8,33,25,5,s_33_r_1.png,s_25_r_9.png,s_5_r_9.png,,
,,1,ch,2025-08-18_17h09.56.732,mlds_experiment_numerosity_triads,2025.1.1,MacIntel,59.95203837,39.369,41.817,left,1.905,,0,9,9,9,1,9,15,20,40,s_15_r_10.png,s_20_r_4.png,s_40_r_5.png,,
,,1,ch,2025-08-18_17h09.56.732,mlds_experiment_numerosity_triads,2025.1.1,MacIntel,59.95203837,41.819,43.967,right,1.611,,0,10,10,10,1,10,40,20,10,s_40_r_3.png,s_20_r_10.png,s_10_r_10.png,,
,,1,ch,2025-08-18_17h09.56.732,mlds_experiment_numerosity_triads,2025.1.1,MacIntel,59.95203837,43.968,47.251,left,2.744,,0,11,11,11,1,11,50,25,5,s_50_r_5.png,s_25_r_10.png,s_5_r_3.png,,
,,1,ch,2025-08-18_17h09.56.732,mlds_experiment_numerosity_triads,2025.1.1,MacIntel,59.95203837,47.252,52.001,right,4.208,,0,12,12,12,1,12,20,33,40,s_20_r_9.png,s_33_r_3.png,s_40_r_5.png,,
,,1,ch,2025-08-18_17h09.56.732,mlds_experiment_numerosity_triads,2025.1.1,MacIntel,59.95203837,52.003,54.066,right,1.529,,0,13,13,13,1,13,10,33,40,s_10_r_3.png,s_33_r_3.png,s_40_r_6.png,,
,,1,ch,2025-08-18_17h09.56.732,mlds_experiment_numerosity_triads,2025.1.1,MacIntel,59.95203837,54.068,56.634,right,2.033,,0,14,14,14,1,14,60,40,25,s_60_r_6.png,s_40_r_4.png,s_25_r_5.png,,
,,1,ch,2025-08-18_17h09.56.732,mlds_experiment_numerosity_triads,2025.1.1,MacIntel,59.95203837,56.635,59.884,left,2.717,,0,15,15,15,1,15,5,10,15,s_5_r_7.png,s_10_r_3.png,s_15_r_10.png,,
,,1,ch,2025-08-18_17h09.56.732,mlds_experiment_numerosity_triads,2025.1.1,MacIntel,59.95203837,59.885,64.5,left,4.075,,0,16,16,16,1,16,25,40,50,s_25_r_9.png,s_40_r_1.png,s_50_r_6.png,,
,,1,ch,2025-08-18_17h09.56.732,mlds_experiment_numerosity_triads,2025.1.1,MacIntel,59.95203837,64.502,67.552,left,2.515,,0,17,17,17,1,17,5,10,33,s_5_r_7.png,s_10_r_4.png,s_33_r_2.png,,
,,1,ch,2025-08-18_17h09.56.732,mlds_experiment_numerosity_triads,2025.1.1,MacIntel,59.95203837,67.555,70.168,right,2.074,,0,18,18,18,1,18,33,50,60,s_33_r_10.png,s_50_r_4.png,s_60_r_9.png,,
,,1,ch,2025-08-18_17h09.56.732,mlds_experiment_numerosity_triads,2025.1.1,MacIntel,59.95203837,70.169,76.001,right,5.291,,0,19,19,19,1,19,60,33,15,s_60_r_5.png,s_33_r_5.png,s_15_r_2.png,,
,,1,ch,2025-08-18_17h09.56.732,mlds_experiment_numerosity_triads,2025.1.1,MacIntel,59.95203837,76.004,80.601,right,4.063,,0,20,20,20,1,20,40,33,25,s_40_r_4.png,s_33_r_10.png,s_25_r_3.png,,
,,1,ch,2025-08-18_17h09.56.732,mlds_experiment_numerosity_triads,2025.1.1,MacIntel,59.95203837,80.603,84.017,right,2.875,,0,21,21,21,1,21,5,15,25,s_5_r_5.png,s_15_r_7.png,s_25_r_8.png,,
,,1,ch,2025-08-18_17h09.56.732,mlds_experiment_numerosity_triads,2025.1.1,MacIntel,59.95203837,84.019,85.417,left,0.858,,0,22,22,22,1,22,60,50,5,s_60_r_4.png,s_50_r_2.png,s_5_r_3.png,,
,,1,ch,2025-08-18_17h09.56.732,mlds_experiment_numerosity_triads,2025.1.1,MacIntel,59.95203837,85.42,89.067,right,3.115,,0,23,23,23,1,23,60,25,15,s_60_r_1.png,s_25_r_10.png,s_15_r_9.png,,
,,1,ch,2025-08-18_17h09.56.732,mlds_experiment_numerosity_triads,2025.1.1,MacIntel,59.95203837,89.069,92.868,right,3.26,,0,24,24,24,1,24,60,40,33,s_60_r_7.png,s_40_r_5.png,s_33_r_1.png,,
,,1,ch,2025-08-18_17h09.56.732,mlds_experiment_numerosity_triads,2025.1.1,MacIntel,59.95203837,92.869,95.367,left,1.961,,0,25,25,25,1,25,20,25,60,s_20_r_2.png,s_25_r_3.png,s_60_r_8.png,,
,,1,ch,2025-08-18_17h09.56.732,mlds_experiment_numerosity_triads,2025.1.1,MacIntel,59.95203837,95.368,99.101,left,3.202,,0,26,26,26,1,26,5,10,20,s_5_r_7.png,s_10_r_3.png,s_20_r_10.png,,
,,1,ch,2025-08-18_17h09.56.732,mlds_experiment_numerosity_triads,2025.1.1,MacIntel,59.95203837,99.105,102.251,left,2.615,,0,27,27,27,1,27,50,20,5,s_50_r_10.png,s_20_r_7.png,s_5_r_7.png,,
,,1,ch,2025-08-18_17h09.56.732,mlds_experiment_numerosity_triads,2025.1.1,MacIntel,59.95203837,102.252,108.584,right,5.792,,0,28,28,28,1,28,60,33,25,s_60_r_5.png,s_33_r_9.png,s_25_r_6.png,,
,,1,ch,2025-08-18_17h09.56.732,mlds_experiment_numerosity_triads,2025.1.1,MacIntel,59.95203837,108.587,111.383,left,2.259,,0,29,29,29,1,29,33,15,5,s_33_r_9.png,s_15_r_8.png,s_5_r_2.png,,
,,1,ch,2025-08-18_17h09.56.732,mlds_experiment_numerosity_triads,2025.1.1,MacIntel,59.95203837,111.385,113.267,right,1.351,,0,30,30,30,1,30,10,25,40,s_10_r_9.png,s_25_r_5.png,s_40_r_1.png,,
,,1,ch,2025-08-18_17h09.56.732,mlds_experiment_numerosity_triads,2025.1.1,MacIntel,59.95203837,113.269,115.084,left,1.286,,0,31,31,31,1,31,40,33,5,s_40_r_1.png,s_33_r_4.png,s_5_r_4.png,,
,,1,ch,2025-08-18_17h09.56.732,mlds_experiment_numerosity_triads,2025.1.1,MacIntel,59.95203837,115.085,117.034,left,1.411,,0,32,32,32,1,32,60,50,20,s_60_r_3.png,s_50_r_10.png,s_20_r_10.png,,
,,1,ch,2025-08-18_17h09.56.732,mlds_experiment_numerosity_triads,2025.1.1,MacIntel,59.95203837,117.035,118.517,right,0.947,,0,33,33,33,1,33,10,40,60,s_10_r_8.png,s_40_r_2.png,s_60_r_4.png,,
,,1,ch,2025-08-18_17h09.56.732,mlds_experiment_numerosity_triads,2025.1.1,MacIntel,59.95203837,118.518,121.067,left,2.028,,0,34,34,34,1,34,15,20,60,s_15_r_8.png,s_20_r_4.png,s_60_r_7.png,,
,,1,ch,2025-08-18_17h09.56.732,mlds_experiment_numerosity_triads,2025.1.1,MacIntel,59.95203837,121.068,124.101,right,2.492,,0,35,35,35,1,35,33,25,20,s_33_r_7.png,s_25_r_4.png,s_20_r_3.png,,
,,1,ch,2025-08-18_17h09.56.732,mlds_experiment_numerosity_triads,2025.1.1,MacIntel,59.95203837,124.102,126.317,right,1.686,,0,36,36,36,1,36,60,40,20,s_60_r_5.png,s_40_r_6.png,s_20_r_1.png,,
,,1,ch,2025-08-18_17h09.56.732,mlds_experiment_numerosity_triads,2025.1.1,MacIntel,59.95203837,126.319,127.634,right,0.773,,0,37,37,37,1,37,10,40,50,s_10_r_7.png,s_40_r_8.png,s_50_r_9.png,,
,,1,ch,2025-08-18_17h09.56.732,mlds_experiment_numerosity_triads,2025.1.1,MacIntel,59.95203837,127.635,129.184,right,1.032,,0,38,38,38,1,38,10,20,33,s_10_r_1.png,s_20_r_10.png,s_33_r_8.png,,
,,1,ch,2025-08-18_17h09.56.732,mlds_experiment_numerosity_triads,2025.1.1,MacIntel,59.95203837,129.186,131.467,left,1.745,,0,39,39,39,1,39,33,25,10,s_33_r_7.png,s_25_r_10.png,s_10_r_7.png,,
,,1,ch,2025-08-18_17h09.56.732,mlds_experiment_numerosity_triads,2025.1.1,MacIntel,59.95203837,131.469,133.901,right,1.901,,0,40,40,40,1,40,50,10,5,s_50_r_2.png,s_10_r_10.png,s_5_r_7.png,,
,,1,ch,2025-08-18_17h09.56.732,mlds_experiment_numerosity_triads,2025.1.1,MacIntel,59.95203837,133.905,135.167,right,0.725,,0,41,41,41,1,41,5,40,50,s_5_r_7.png,s_40_r_9.png,s_50_r_5.png,,
,,1,ch,2025-08-18_17h09.56.732,mlds_experiment_numerosity_triads,2025.1.1,MacIntel,59.95203837,135.169,137.734,right,2.032,,0,42,42,42,1,42,60,33,20,s_60_r_8.png,s_33_r_9.png,s_20_r_9.png,,
,,1,ch,2025-08-18_17h09.56.732,mlds_experiment_numerosity_triads,2025.1.1,MacIntel,59.95203837,137.736,140.301,right,2.024,,0,43,43,43,1,43,15,25,33,s_15_r_8.png,s_25_r_9.png,s_33_r_4.png,,
,,1,ch,2025-08-18_17h09.56.732,mlds_experiment_numerosity_triads,2025.1.1,MacIntel,59.95203837,140.302,142.017,right,1.178,,0,44,44,44,1,44,5,10,40,s_5_r_10.png,s_10_r_1.png,s_40_r_7.png,,
,,1,ch,2025-08-18_17h09.56.732,mlds_experiment_numerosity_triads,2025.1.1,MacIntel,59.95203837,142.019,146.1,left,3.545,,0,45,45,45,1,45,20,15,10,s_20_r_1.png,s_15_r_7.png,s_10_r_6.png,,
,,1,ch,2025-08-18_17h09.56.732,mlds_experiment_numerosity_triads,2025.1.1,MacIntel,59.95203837,146.102,148.45,right,1.81,,0,46,46,46,1,46,10,20,25,s_10_r_9.png,s_20_r_3.png,s_25_r_10.png,,
,,1,ch,2025-08-18_17h09.56.732,mlds_experiment_numerosity_triads,2025.1.1,MacIntel,59.95203837,148.451,151.467,right,2.493,,0,47,47,47,1,47,50,40,20,s_50_r_3.png,s_40_r_4.png,s_20_r_7.png,,
,,1,ch,2025-08-18_17h09.56.732,mlds_experiment_numerosity_triads,2025.1.1,MacIntel,59.95203837,151.469,152.65,left,0.642,,0,48,48,48,1,48,40,25,5,s_40_r_10.png,s_25_r_3.png,s_5_r_4.png,,
,,1,ch,2025-08-18_17h09.56.732,mlds_experiment_numerosity_triads,2025.1.1,MacIntel,59.95203837,152.652,154.617,left,1.433,,0,49,49,49,1,49,20,25,50,s_20_r_1.png,s_25_r_10.png,s_50_r_6.png,,
,,1,ch,2025-08-18_17h09.56.732,mlds_experiment_numerosity_triads,2025.1.1,MacIntel,59.95203837,154.619,156.251,left,1.094,,0,50,50,50,1,50,60,40,15,s_60_r_3.png,s_40_r_8.png,s_15_r_9.png,,
,,1,ch,2025-08-18_17h09.56.732,mlds_experiment_numerosity_triads,2025.1.1,MacIntel,59.95203837,156.252,158.9,left,2.116,,0,51,51,51,1,51,10,15,60,s_10_r_9.png,s_15_r_5.png,s_60_r_8.png,,
,,1,ch,2025-08-18_17h09.56.732,mlds_experiment_numerosity_triads,2025.1.1,MacIntel,59.95203837,158.901,160.768,left,1.336,,0,52,52,52,1,52,50,40,33,s_50_r_3.png,s_40_r_8.png,s_33_r_10.png,,
,,1,ch,2025-08-18_17h09.56.732,mlds_experiment_numerosity_triads,2025.1.1,MacIntel,59.95203837,160.769,163.468,right,2.168,,0,53,53,53,1,53,25,50,60,s_25_r_7.png,s_50_r_10.png,s_60_r_2.png,,
,,1,ch,2025-08-18_17h09.56.732,mlds_experiment_numerosity_triads,2025.1.1,MacIntel,59.95203837,163.469,166.469,right,2.47,,0,54,54,54,1,54,50,25,15,s_50_r_3.png,s_25_r_8.png,s_15_r_1.png,,
,,1,ch,2025-08-18_17h09.56.732,mlds_experiment_numerosity_triads,2025.1.1,MacIntel,59.95203837,166.472,168.617,right,1.617,,0,55,55,55,1,55,60,15,5,s_60_r_5.png,s_15_r_9.png,s_5_r_3.png,,
,,1,ch,2025-08-18_17h09.56.732,mlds_experiment_numerosity_triads,2025.1.1,MacIntel,59.95203837,168.619,170.918,right,1.761,,0,56,56,56,1,56,60,20,10,s_60_r_1.png,s_20_r_7.png,s_10_r_2.png,,
,,1,ch,2025-08-18_17h09.56.732,mlds_experiment_numerosity_triads,2025.1.1,MacIntel,59.95203837,170.919,175.917,right,4.466,,0,57,57,57,1,57,40,15,5,s_40_r_7.png,s_15_r_1.png,s_5_r_1.png,,
,,1,ch,2025-08-18_17h09.56.732,mlds_experiment_numerosity_triads,2025.1.1,MacIntel,59.95203837,175.919,177.417,right,0.968,,0,58,58,58,1,58,10,50,60,s_10_r_6.png,s_50_r_3.png,s_60_r_7.png,,
,,1,ch,2025-08-18_17h09.56.732,mlds_experiment_numerosity_triads,2025.1.1,MacIntel,59.95203837,177.419,179.167,left,1.21,,0,59,59,59,1,59,5,20,33,s_5_r_6.png,s_20_r_3.png,s_33_r_6.png,,
,,1,ch,2025-08-18_17h09.56.732,mlds_experiment_numerosity_triads,2025.1.1,MacIntel,59.95203837,179.169,184.652,left,4.951,,0,60,60,60,1,60,25,33,50,s_25_r_4.png,s_33_r_5.png,s_50_r_1.png,,
,,1,ch,2025-08-18_17h09.56.732,mlds_experiment_numerosity_triads,2025.1.1,MacIntel,59.95203837,184.653,186.783,left,1.592,,0,61,61,61,1,61,50,33,15,s_50_r_8.png,s_33_r_5.png,s_15_r_3.png,,
,,1,ch,2025-08-18_17h09.56.732,mlds_experiment_numerosity_triads,2025.1.1,MacIntel,59.95203837,186.786,188.6,right,1.276,,0,62,62,62,1,62,15,50,60,s_15_r_10.png,s_50_r_2.png,s_60_r_8.png,,
,,1,ch,2025-08-18_17h09.56.732,mlds_experiment_numerosity_triads,2025.1.1,MacIntel,59.95203837,188.602,190.284,left,1.159,,0,63,63,63,1,63,40,25,15,s_40_r_7.png,s_25_r_1.png,s_15_r_9.png,,
,,1,ch,2025-08-18_17h09.56.732,mlds_experiment_numerosity_triads,2025.1.1,MacIntel,59.95203837,190.285,192.65,right,1.827,,0,64,64,64,1,64,20,33,50,s_20_r_2.png,s_33_r_4.png,s_50_r_10.png,,
,,1,ch,2025-08-18_17h09.56.732,mlds_experiment_numerosity_triads,2025.1.1,MacIntel,59.95203837,192.652,193.917,left,0.743,,0,65,65,65,1,65,60,40,5,s_60_r_3.png,s_40_r_1.png,s_5_r_6.png,,
,,1,ch,2025-08-18_17h09.56.732,mlds_experiment_numerosity_triads,2025.1.1,MacIntel,59.95203837,193.919,194.984,right,0.536,,0,66,66,66,1,66,5,20,25,s_5_r_7.png,s_20_r_4.png,s_25_r_8.png,,
,,1,ch,2025-08-18_17h09.56.732,mlds_experiment_numerosity_triads,2025.1.1,MacIntel,59.95203837,194.986,196.184,left,0.667,,0,67,67,67,1,67,60,25,5,s_60_r_9.png,s_25_r_8.png,s_5_r_1.png,,
,,1,ch,2025-08-18_17h09.56.732,mlds_experiment_numerosity_triads,2025.1.1,MacIntel,59.95203837,196.186,198.386,left,1.659,,0,68,68,68,1,68,50,25,10,s_50_r_2.png,s_25_r_5.png,s_10_r_4.png,,
,,1,ch,2025-08-18_17h09.56.732,mlds_experiment_numerosity_triads,2025.1.1,MacIntel,59.95203837,198.388,202.567,right,3.652,,0,69,69,69,1,69,25,10,5,s_25_r_9.png,s_10_r_9.png,s_5_r_5.png,,
,,1,ch,2025-08-18_17h09.56.732,mlds_experiment_numerosity_triads,2025.1.1,MacIntel,59.95203837,202.569,204.717,right,1.608,,0,70,70,70,1,70,10,25,60,s_10_r_5.png,s_25_r_9.png,s_60_r_9.png,,
,,1,ch,2025-08-18_17h09.56.732,mlds_experiment_numerosity_triads,2025.1.1,MacIntel,59.95203837,204.719,207.918,right,2.664,,0,71,71,71,1,71,25,15,10,s_25_r_1.png,s_15_r_2.png,s_10_r_8.png,,
,,1,ch,2025-08-18_17h09.56.732,mlds_experiment_numerosity_triads,2025.1.1,MacIntel,59.95203837,207.92,210.65,left,2.193,,0,72,72,72,1,72,50,40,15,s_50_r_2.png,s_40_r_7.png,s_15_r_5.png,,
,,1,ch,2025-08-18_17h09.56.732,mlds_experiment_numerosity_triads,2025.1.1,MacIntel,59.95203837,210.652,212.95,left,1.765,,0,73,73,73,1,73,40,25,20,s_40_r_5.png,s_25_r_6.png,s_20_r_5.png,,
,,1,ch,2025-08-18_17h09.56.732,mlds_experiment_numerosity_triads,2025.1.1,MacIntel,59.95203837,212.952,214.451,left,0.983,,0,74,74,74,1,74,40,20,5,s_40_r_2.png,s_20_r_5.png,s_5_r_7.png,,
,,1,ch,2025-08-18_17h09.56.732,mlds_experiment_numerosity_triads,2025.1.1,MacIntel,59.95203837,214.452,218.867,left,3.879,,0,75,75,75,1,75,15,20,25,s_15_r_8.png,s_20_r_5.png,s_25_r_2.png,,
,,1,ch,2025-08-18_17h09.56.732,mlds_experiment_numerosity_triads,2025.1.1,MacIntel,59.95203837,218.869,221.518,left,2.11,,0,76,76,76,1,76,15,20,33,s_15_r_2.png,s_20_r_3.png,s_33_r_7.png,,
,,1,ch,2025-08-18_17h09.56.732,mlds_experiment_numerosity_triads,2025.1.1,MacIntel,59.95203837,221.52,224.15,left,2.094,,0,77,77,77,1,77,10,15,40,s_10_r_10.png,s_15_r_8.png,s_40_r_5.png,,
,,1,ch,2025-08-18_17h09.56.732,mlds_experiment_numerosity_triads,2025.1.1,MacIntel,59.95203837,224.152,228.284,left,3.595,,0,78,78,78,1,78,10,15,50,s_10_r_1.png,s_15_r_10.png,s_50_r_8.png,,
,,1,ch,2025-08-18_17h09.56.732,mlds_experiment_numerosity_triads,2025.1.1,MacIntel,59.95203837,228.285,229.717,right,0.901,,0,79,79,79,1,79,50,20,15,s_50_r_6.png,s_20_r_5.png,s_15_r_8.png,,
,,1,ch,2025-08-18_17h09.56.732,mlds_experiment_numerosity_triads,2025.1.1,MacIntel,59.95203837,229.719,233.135,right,2.878,,0,80,80,80,1,80,40,33,15,s_40_r_9.png,s_33_r_6.png,s_15_r_7.png,,
,,1,ch,2025-08-18_17h09.56.732,mlds_experiment_numerosity_triads,2025.1.1,MacIntel,59.95203837,233.139,236.435,right,2.767,,0,81,81,81,1,81,40,50,60,s_40_r_7.png,s_50_r_5.png,s_60_r_8.png,,
,,1,ch,2025-08-18_17h09.56.732,mlds_experiment_numerosity_triads,2025.1.1,MacIntel,59.95203837,236.436,238.434,left,1.458,,0,82,82,82,1,82,10,20,50,s_10_r_7.png,s_20_r_1.png,s_50_r_7.png,,
,,1,ch,2025-08-18_17h09.56.732,mlds_experiment_numerosity_triads,2025.1.1,MacIntel,59.95203837,238.437,241.033,right,2.06,,0,83,83,83,1,83,50,15,5,s_50_r_8.png,s_15_r_4.png,s_5_r_10.png,,
,,1,ch,2025-08-18_17h09.56.732,mlds_experiment_numerosity_triads,2025.1.1,MacIntel,59.95203837,,,,,,,,,,,,,,,,,,241.034,243.035
