instruct.started,instruct.stopped,session,participant,date,expName,psychopyVersion,OS,frameRate,trial.started,trial.stopped,resp.keys,resp.rt,resp.duration,trials.thisRepN,trials.thisTrialN,trials.thisN,trials.thisIndex,trials.ran,trial,s1,s2,s3,im1,im2,im3,thanks.started,thanks.stopped
0.0001,5.5144,1,JXV,2025-08-20_11h07.00.595,mlds_experiment_numerosity_triads,2025.1.1,Win32,144.9275362,,,,,,,,,,,,,,,,,,,
,,1,JXV,2025-08-20_11h07.00.595,mlds_experiment_numerosity_triads,2025.1.1,Win32,144.9275362,5.5174,7.1957,right,1.1627,,0,0,0,0,1,0,60,20,5,s_60_r_2.png,s_20_r_7.png,s_5_r_6.png,,
,,1,JXV,2025-08-20_11h07.00.595,mlds_experiment_numerosity_triads,2025.1.1,Win32,144.9275362,7.1961,16.1657,right,8.4569,,0,1,1,1,1,1,50,33,10,s_50_r_2.png,s_33_r_8.png,s_10_r_3.png,,
,,1,JXV,2025-08-20_11h07.00.595,mlds_experiment_numerosity_triads,2025.1.1,Win32,144.9275362,16.17,17.6248,left,0.9505,,0,2,2,2,1,2,60,10,5,s_60_r_5.png,s_10_r_8.png,s_5_r_2.png,,
,,1,JXV,2025-08-20_11h07.00.595,mlds_experiment_numerosity_triads,2025.1.1,Win32,144.9275362,17.6252,19.5425,left,1.3968,,0,3,3,3,1,3,10,33,60,s_10_r_3.png,s_33_r_8.png,s_60_r_9.png,,
,,1,JXV,2025-08-20_11h07.00.595,mlds_experiment_numerosity_triads,2025.1.1,Win32,144.9275362,19.5428,21.5783,left,1.5257,,0,4,4,4,1,4,5,33,60,s_5_r_2.png,s_33_r_4.png,s_60_r_10.png,,
,,1,JXV,2025-08-20_11h07.00.595,mlds_experiment_numerosity_triads,2025.1.1,Win32,144.9275362,21.5786,23.35,right,1.2582,,0,5,5,5,1,5,10,15,33,s_10_r_10.png,s_15_r_7.png,s_33_r_8.png,,
,,1,JXV,2025-08-20_11h07.00.595,mlds_experiment_numerosity_triads,2025.1.1,Win32,144.9275362,23.3505,25.5873,left,1.7261,,0,6,6,6,1,6,20,15,5,s_20_r_7.png,s_15_r_8.png,s_5_r_7.png,,
,,1,JXV,2025-08-20_11h07.00.595,mlds_experiment_numerosity_triads,2025.1.1,Win32,144.9275362,25.5876,27.241,left,1.1451,,0,7,7,7,1,7,5,33,50,s_5_r_4.png,s_33_r_2.png,s_50_r_1.png,,
,,1,JXV,2025-08-20_11h07.00.595,mlds_experiment_numerosity_triads,2025.1.1,Win32,144.9275362,27.2413,28.6099,right,0.8591,,0,8,8,8,1,8,33,25,5,s_33_r_1.png,s_25_r_9.png,s_5_r_9.png,,
,,1,JXV,2025-08-20_11h07.00.595,mlds_experiment_numerosity_triads,2025.1.1,Win32,144.9275362,28.6101,29.8743,left,0.7574,,0,9,9,9,1,9,15,20,40,s_15_r_10.png,s_20_r_4.png,s_40_r_5.png,,
,,1,JXV,2025-08-20_11h07.00.595,mlds_experiment_numerosity_triads,2025.1.1,Win32,144.9275362,29.8747,31.1528,left,0.7731,,0,10,10,10,1,10,40,20,10,s_40_r_3.png,s_20_r_10.png,s_10_r_10.png,,
,,1,JXV,2025-08-20_11h07.00.595,mlds_experiment_numerosity_triads,2025.1.1,Win32,144.9275362,31.1533,33.3623,left,1.6954,,0,11,11,11,1,11,50,25,5,s_50_r_5.png,s_25_r_10.png,s_5_r_3.png,,
,,1,JXV,2025-08-20_11h07.00.595,mlds_experiment_numerosity_triads,2025.1.1,Win32,144.9275362,33.3625,35.9957,left,2.1251,,0,12,12,12,1,12,20,33,40,s_20_r_9.png,s_33_r_3.png,s_40_r_5.png,,
,,1,JXV,2025-08-20_11h07.00.595,mlds_experiment_numerosity_triads,2025.1.1,Win32,144.9275362,35.996,38.1217,left,1.6204,,0,13,13,13,1,13,10,33,40,s_10_r_3.png,s_33_r_3.png,s_40_r_6.png,,
,,1,JXV,2025-08-20_11h07.00.595,mlds_experiment_numerosity_triads,2025.1.1,Win32,144.9275362,38.1221,40.0743,left,1.4423,,0,14,14,14,1,14,60,40,25,s_60_r_6.png,s_40_r_4.png,s_25_r_5.png,,
,,1,JXV,2025-08-20_11h07.00.595,mlds_experiment_numerosity_triads,2025.1.1,Win32,144.9275362,40.0748,41.9015,left,1.3071,,0,15,15,15,1,15,5,10,15,s_5_r_7.png,s_10_r_3.png,s_15_r_10.png,,
,,1,JXV,2025-08-20_11h07.00.595,mlds_experiment_numerosity_triads,2025.1.1,Win32,144.9275362,41.9018,45.1399,left,2.7307,,0,16,16,16,1,16,25,40,50,s_25_r_9.png,s_40_r_1.png,s_50_r_6.png,,
,,1,JXV,2025-08-20_11h07.00.595,mlds_experiment_numerosity_triads,2025.1.1,Win32,144.9275362,45.1402,46.4179,right,0.7618,,0,17,17,17,1,17,5,10,33,s_5_r_7.png,s_10_r_4.png,s_33_r_2.png,,
,,1,JXV,2025-08-20_11h07.00.595,mlds_experiment_numerosity_triads,2025.1.1,Win32,144.9275362,46.4183,49.1005,left,2.1704,,0,18,18,18,1,18,33,50,60,s_33_r_10.png,s_50_r_4.png,s_60_r_9.png,,
,,1,JXV,2025-08-20_11h07.00.595,mlds_experiment_numerosity_triads,2025.1.1,Win32,144.9275362,49.1007,52.6226,left,3.0019,,0,19,19,19,1,19,60,33,15,s_60_r_5.png,s_33_r_5.png,s_15_r_2.png,,
,,1,JXV,2025-08-20_11h07.00.595,mlds_experiment_numerosity_triads,2025.1.1,Win32,144.9275362,52.623,56.194,right,3.0642,,0,20,20,20,1,20,40,33,25,s_40_r_4.png,s_33_r_10.png,s_25_r_3.png,,
,,1,JXV,2025-08-20_11h07.00.595,mlds_experiment_numerosity_triads,2025.1.1,Win32,144.9275362,56.1943,58.4105,right,1.7089,,0,21,21,21,1,21,5,15,25,s_5_r_5.png,s_15_r_7.png,s_25_r_8.png,,
,,1,JXV,2025-08-20_11h07.00.595,mlds_experiment_numerosity_triads,2025.1.1,Win32,144.9275362,58.4107,60.196,right,1.2769,,0,22,22,22,1,22,60,50,5,s_60_r_4.png,s_50_r_2.png,s_5_r_3.png,,
,,1,JXV,2025-08-20_11h07.00.595,mlds_experiment_numerosity_triads,2025.1.1,Win32,144.9275362,60.1965,65.2684,left,4.5629,,0,23,23,23,1,23,60,25,15,s_60_r_1.png,s_25_r_10.png,s_15_r_9.png,,
,,1,JXV,2025-08-20_11h07.00.595,mlds_experiment_numerosity_triads,2025.1.1,Win32,144.9275362,65.2687,66.9288,left,1.1477,,0,24,24,24,1,24,60,40,33,s_60_r_7.png,s_40_r_5.png,s_33_r_1.png,,
,,1,JXV,2025-08-20_11h07.00.595,mlds_experiment_numerosity_triads,2025.1.1,Win32,144.9275362,66.9291,70.7643,right,3.3267,,0,25,25,25,1,25,20,25,60,s_20_r_2.png,s_25_r_3.png,s_60_r_8.png,,
,,1,JXV,2025-08-20_11h07.00.595,mlds_experiment_numerosity_triads,2025.1.1,Win32,144.9275362,70.7645,74.009,right,2.7317,,0,26,26,26,1,26,5,10,20,s_5_r_7.png,s_10_r_3.png,s_20_r_10.png,,
,,1,JXV,2025-08-20_11h07.00.595,mlds_experiment_numerosity_triads,2025.1.1,Win32,144.9275362,74.0094,80.0192,left,5.495,,0,27,27,27,1,27,50,20,5,s_50_r_10.png,s_20_r_7.png,s_5_r_7.png,,
,,1,JXV,2025-08-20_11h07.00.595,mlds_experiment_numerosity_triads,2025.1.1,Win32,144.9275362,80.0195,82.5413,left,2.0117,,0,28,28,28,1,28,60,33,25,s_60_r_5.png,s_33_r_9.png,s_25_r_6.png,,
,,1,JXV,2025-08-20_11h07.00.595,mlds_experiment_numerosity_triads,2025.1.1,Win32,144.9275362,82.5415,85.9876,left,2.938,,0,29,29,29,1,29,33,15,5,s_33_r_9.png,s_15_r_8.png,s_5_r_2.png,,
,,1,JXV,2025-08-20_11h07.00.595,mlds_experiment_numerosity_triads,2025.1.1,Win32,144.9275362,85.9879,87.3285,left,0.8353,,0,30,30,30,1,30,10,25,40,s_10_r_9.png,s_25_r_5.png,s_40_r_1.png,,
,,1,JXV,2025-08-20_11h07.00.595,mlds_experiment_numerosity_triads,2025.1.1,Win32,144.9275362,87.3287,88.6418,right,0.8066,,0,31,31,31,1,31,40,33,5,s_40_r_1.png,s_33_r_4.png,s_5_r_4.png,,
,,1,JXV,2025-08-20_11h07.00.595,mlds_experiment_numerosity_triads,2025.1.1,Win32,144.9275362,88.6422,92.0672,right,2.9174,,0,32,32,32,1,32,60,50,20,s_60_r_3.png,s_50_r_10.png,s_20_r_10.png,,
,,1,JXV,2025-08-20_11h07.00.595,mlds_experiment_numerosity_triads,2025.1.1,Win32,144.9275362,92.0674,94.5616,left,1.9881,,0,33,33,33,1,33,10,40,60,s_10_r_8.png,s_40_r_2.png,s_60_r_4.png,,
,,1,JXV,2025-08-20_11h07.00.595,mlds_experiment_numerosity_triads,2025.1.1,Win32,144.9275362,94.5619,98.2372,right,3.1656,,0,34,34,34,1,34,15,20,60,s_15_r_8.png,s_20_r_4.png,s_60_r_7.png,,
,,1,JXV,2025-08-20_11h07.00.595,mlds_experiment_numerosity_triads,2025.1.1,Win32,144.9275362,98.2373,100.8913,left,2.1457,,0,35,35,35,1,35,33,25,20,s_33_r_7.png,s_25_r_4.png,s_20_r_3.png,,
,,1,JXV,2025-08-20_11h07.00.595,mlds_experiment_numerosity_triads,2025.1.1,Win32,144.9275362,100.8915,102.3645,right,0.9637,,0,36,36,36,1,36,60,40,20,s_60_r_5.png,s_40_r_6.png,s_20_r_1.png,,
,,1,JXV,2025-08-20_11h07.00.595,mlds_experiment_numerosity_triads,2025.1.1,Win32,144.9275362,102.3647,110.6606,left,7.7869,,0,37,37,37,1,37,10,40,50,s_10_r_7.png,s_40_r_8.png,s_50_r_9.png,,
,,1,JXV,2025-08-20_11h07.00.595,mlds_experiment_numerosity_triads,2025.1.1,Win32,144.9275362,110.6609,113.2245,left,2.0514,,0,38,38,38,1,38,10,20,33,s_10_r_1.png,s_20_r_10.png,s_33_r_8.png,,
,,1,JXV,2025-08-20_11h07.00.595,mlds_experiment_numerosity_triads,2025.1.1,Win32,144.9275362,113.2249,115.9759,left,2.2396,,0,39,39,39,1,39,33,25,10,s_33_r_7.png,s_25_r_10.png,s_10_r_7.png,,
,,1,JXV,2025-08-20_11h07.00.595,mlds_experiment_numerosity_triads,2025.1.1,Win32,144.9275362,115.9764,120.8674,left,4.3764,,0,40,40,40,1,40,50,10,5,s_50_r_2.png,s_10_r_10.png,s_5_r_7.png,,
,,1,JXV,2025-08-20_11h07.00.595,mlds_experiment_numerosity_triads,2025.1.1,Win32,144.9275362,120.8678,123.0351,left,1.6569,,0,41,41,41,1,41,5,40,50,s_5_r_7.png,s_40_r_9.png,s_50_r_5.png,,
,,1,JXV,2025-08-20_11h07.00.595,mlds_experiment_numerosity_triads,2025.1.1,Win32,144.9275362,123.0356,125.4044,left,1.8506,,0,42,42,42,1,42,60,33,20,s_60_r_8.png,s_33_r_9.png,s_20_r_9.png,,
,,1,JXV,2025-08-20_11h07.00.595,mlds_experiment_numerosity_triads,2025.1.1,Win32,144.9275362,125.4047,127.6904,left,1.7759,,0,43,43,43,1,43,15,25,33,s_15_r_8.png,s_25_r_9.png,s_33_r_4.png,,
,,1,JXV,2025-08-20_11h07.00.595,mlds_experiment_numerosity_triads,2025.1.1,Win32,144.9275362,127.6909,129.5178,right,1.314,,0,44,44,44,1,44,5,10,40,s_5_r_10.png,s_10_r_1.png,s_40_r_7.png,,
,,1,JXV,2025-08-20_11h07.00.595,mlds_experiment_numerosity_triads,2025.1.1,Win32,144.9275362,129.5183,131.3661,right,1.3348,,0,45,45,45,1,45,20,15,10,s_20_r_1.png,s_15_r_7.png,s_10_r_6.png,,
,,1,JXV,2025-08-20_11h07.00.595,mlds_experiment_numerosity_triads,2025.1.1,Win32,144.9275362,131.3664,134.8262,left,2.9458,,0,46,46,46,1,46,10,20,25,s_10_r_9.png,s_20_r_3.png,s_25_r_10.png,,
,,1,JXV,2025-08-20_11h07.00.595,mlds_experiment_numerosity_triads,2025.1.1,Win32,144.9275362,134.8267,137.6611,right,2.318,,0,47,47,47,1,47,50,40,20,s_50_r_3.png,s_40_r_4.png,s_20_r_7.png,,
,,1,JXV,2025-08-20_11h07.00.595,mlds_experiment_numerosity_triads,2025.1.1,Win32,144.9275362,137.6616,139.2938,right,1.1148,,0,48,48,48,1,48,40,25,5,s_40_r_10.png,s_25_r_3.png,s_5_r_4.png,,
,,1,JXV,2025-08-20_11h07.00.595,mlds_experiment_numerosity_triads,2025.1.1,Win32,144.9275362,139.2945,141.038,right,1.233,,0,49,49,49,1,49,20,25,50,s_20_r_1.png,s_25_r_10.png,s_50_r_6.png,,
,,1,JXV,2025-08-20_11h07.00.595,mlds_experiment_numerosity_triads,2025.1.1,Win32,144.9275362,141.0382,142.5041,right,0.9546,,0,50,50,50,1,50,60,40,15,s_60_r_3.png,s_40_r_8.png,s_15_r_9.png,,
,,1,JXV,2025-08-20_11h07.00.595,mlds_experiment_numerosity_triads,2025.1.1,Win32,144.9275362,142.5045,144.4981,right,1.4805,,0,51,51,51,1,51,10,15,60,s_10_r_9.png,s_15_r_5.png,s_60_r_8.png,,
,,1,JXV,2025-08-20_11h07.00.595,mlds_experiment_numerosity_triads,2025.1.1,Win32,144.9275362,144.4984,146.298,left,1.2924,,0,52,52,52,1,52,50,40,33,s_50_r_3.png,s_40_r_8.png,s_33_r_10.png,,
,,1,JXV,2025-08-20_11h07.00.595,mlds_experiment_numerosity_triads,2025.1.1,Win32,144.9275362,146.2982,147.6945,left,0.8825,,0,53,53,53,1,53,25,50,60,s_25_r_7.png,s_50_r_10.png,s_60_r_2.png,,
,,1,JXV,2025-08-20_11h07.00.595,mlds_experiment_numerosity_triads,2025.1.1,Win32,144.9275362,147.6947,149.4942,left,1.2926,,0,54,54,54,1,54,50,25,15,s_50_r_3.png,s_25_r_8.png,s_15_r_1.png,,
,,1,JXV,2025-08-20_11h07.00.595,mlds_experiment_numerosity_triads,2025.1.1,Win32,144.9275362,149.4944,150.7447,right,0.7364,,0,55,55,55,1,55,60,15,5,s_60_r_5.png,s_15_r_9.png,s_5_r_3.png,,
,,1,JXV,2025-08-20_11h07.00.595,mlds_experiment_numerosity_triads,2025.1.1,Win32,144.9275362,150.7449,155.5807,left,4.3288,,0,56,56,56,1,56,60,20,10,s_60_r_1.png,s_20_r_7.png,s_10_r_2.png,,
,,1,JXV,2025-08-20_11h07.00.595,mlds_experiment_numerosity_triads,2025.1.1,Win32,144.9275362,155.581,158.0055,left,1.9108,,0,57,57,57,1,57,40,15,5,s_40_r_7.png,s_15_r_1.png,s_5_r_1.png,,
,,1,JXV,2025-08-20_11h07.00.595,mlds_experiment_numerosity_triads,2025.1.1,Win32,144.9275362,158.0058,159.2007,left,0.681,,0,58,58,58,1,58,10,50,60,s_10_r_6.png,s_50_r_3.png,s_60_r_7.png,,
,,1,JXV,2025-08-20_11h07.00.595,mlds_experiment_numerosity_triads,2025.1.1,Win32,144.9275362,159.2009,161.4101,left,1.7024,,0,59,59,59,1,59,5,20,33,s_5_r_6.png,s_20_r_3.png,s_33_r_6.png,,
,,1,JXV,2025-08-20_11h07.00.595,mlds_experiment_numerosity_triads,2025.1.1,Win32,144.9275362,161.4104,162.9178,right,0.9935,,0,60,60,60,1,60,25,33,50,s_25_r_4.png,s_33_r_5.png,s_50_r_1.png,,
,,1,JXV,2025-08-20_11h07.00.595,mlds_experiment_numerosity_triads,2025.1.1,Win32,144.9275362,162.9181,167.3647,left,3.9397,,0,61,61,61,1,61,50,33,15,s_50_r_8.png,s_33_r_5.png,s_15_r_3.png,,
,,1,JXV,2025-08-20_11h07.00.595,mlds_experiment_numerosity_triads,2025.1.1,Win32,144.9275362,167.365,168.8101,left,0.9313,,0,62,62,62,1,62,15,50,60,s_15_r_10.png,s_50_r_2.png,s_60_r_8.png,,
,,1,JXV,2025-08-20_11h07.00.595,mlds_experiment_numerosity_triads,2025.1.1,Win32,144.9275362,168.8103,170.5123,left,1.1879,,0,63,63,63,1,63,40,25,15,s_40_r_7.png,s_25_r_1.png,s_15_r_9.png,,
,,1,JXV,2025-08-20_11h07.00.595,mlds_experiment_numerosity_triads,2025.1.1,Win32,144.9275362,170.5126,172.1521,right,1.1257,,0,64,64,64,1,64,20,33,50,s_20_r_2.png,s_33_r_4.png,s_50_r_10.png,,
,,1,JXV,2025-08-20_11h07.00.595,mlds_experiment_numerosity_triads,2025.1.1,Win32,144.9275362,172.1523,173.2916,right,0.6322,,0,65,65,65,1,65,60,40,5,s_60_r_3.png,s_40_r_1.png,s_5_r_6.png,,
,,1,JXV,2025-08-20_11h07.00.595,mlds_experiment_numerosity_triads,2025.1.1,Win32,144.9275362,173.2918,174.7228,left,0.9171,,0,66,66,66,1,66,5,20,25,s_5_r_7.png,s_20_r_4.png,s_25_r_8.png,,
,,1,JXV,2025-08-20_11h07.00.595,mlds_experiment_numerosity_triads,2025.1.1,Win32,144.9275362,174.723,176.7794,right,1.5495,,0,67,67,67,1,67,60,25,5,s_60_r_9.png,s_25_r_8.png,s_5_r_1.png,,
,,1,JXV,2025-08-20_11h07.00.595,mlds_experiment_numerosity_triads,2025.1.1,Win32,144.9275362,176.7796,178.8017,left,1.508,,0,68,68,68,1,68,50,25,10,s_50_r_2.png,s_25_r_5.png,s_10_r_4.png,,
,,1,JXV,2025-08-20_11h07.00.595,mlds_experiment_numerosity_triads,2025.1.1,Win32,144.9275362,178.8019,180.2257,left,0.9172,,0,69,69,69,1,69,25,10,5,s_25_r_9.png,s_10_r_9.png,s_5_r_5.png,,
,,1,JXV,2025-08-20_11h07.00.595,mlds_experiment_numerosity_triads,2025.1.1,Win32,144.9275362,180.2259,182.2199,right,1.4801,,0,70,70,70,1,70,10,25,60,s_10_r_5.png,s_25_r_9.png,s_60_r_9.png,,
,,1,JXV,2025-08-20_11h07.00.595,mlds_experiment_numerosity_triads,2025.1.1,Win32,144.9275362,182.2201,183.3176,left,0.5835,,0,71,71,71,1,71,25,15,10,s_25_r_1.png,s_15_r_2.png,s_10_r_8.png,,
,,1,JXV,2025-08-20_11h07.00.595,mlds_experiment_numerosity_triads,2025.1.1,Win32,144.9275362,183.3179,184.9296,right,1.1048,,0,72,72,72,1,72,50,40,15,s_50_r_2.png,s_40_r_7.png,s_15_r_5.png,,
,,1,JXV,2025-08-20_11h07.00.595,mlds_experiment_numerosity_triads,2025.1.1,Win32,144.9275362,184.9299,187.0697,left,1.6328,,0,73,73,73,1,73,40,25,20,s_40_r_5.png,s_25_r_6.png,s_20_r_5.png,,
,,1,JXV,2025-08-20_11h07.00.595,mlds_experiment_numerosity_triads,2025.1.1,Win32,144.9275362,187.0699,191.3844,left,3.8005,,0,74,74,74,1,74,40,20,5,s_40_r_2.png,s_20_r_5.png,s_5_r_7.png,,
,,1,JXV,2025-08-20_11h07.00.595,mlds_experiment_numerosity_triads,2025.1.1,Win32,144.9275362,191.3847,194.0803,left,2.1887,,0,75,75,75,1,75,15,20,25,s_15_r_8.png,s_20_r_5.png,s_25_r_2.png,,
,,1,JXV,2025-08-20_11h07.00.595,mlds_experiment_numerosity_triads,2025.1.1,Win32,144.9275362,194.0806,198.4507,right,3.8632,,0,76,76,76,1,76,15,20,33,s_15_r_2.png,s_20_r_3.png,s_33_r_7.png,,
,,1,JXV,2025-08-20_11h07.00.595,mlds_experiment_numerosity_triads,2025.1.1,Win32,144.9275362,198.451,204.3082,right,5.3501,,0,77,77,77,1,77,10,15,40,s_10_r_10.png,s_15_r_8.png,s_40_r_5.png,,
,,1,JXV,2025-08-20_11h07.00.595,mlds_experiment_numerosity_triads,2025.1.1,Win32,144.9275362,204.3083,205.6283,right,0.8131,,0,78,78,78,1,78,10,15,50,s_10_r_1.png,s_15_r_10.png,s_50_r_8.png,,
,,1,JXV,2025-08-20_11h07.00.595,mlds_experiment_numerosity_triads,2025.1.1,Win32,144.9275362,205.6285,207.8449,left,1.7093,,0,79,79,79,1,79,50,20,15,s_50_r_6.png,s_20_r_5.png,s_15_r_8.png,,
,,1,JXV,2025-08-20_11h07.00.595,mlds_experiment_numerosity_triads,2025.1.1,Win32,144.9275362,207.845,210.756,left,2.397,,0,80,80,80,1,80,40,33,15,s_40_r_9.png,s_33_r_6.png,s_15_r_7.png,,
,,1,JXV,2025-08-20_11h07.00.595,mlds_experiment_numerosity_triads,2025.1.1,Win32,144.9275362,210.7563,214.0842,right,2.8141,,0,81,81,81,1,81,40,50,60,s_40_r_7.png,s_50_r_5.png,s_60_r_8.png,,
,,1,JXV,2025-08-20_11h07.00.595,mlds_experiment_numerosity_triads,2025.1.1,Win32,144.9275362,214.0844,215.5988,right,1.0005,,0,82,82,82,1,82,10,20,50,s_10_r_7.png,s_20_r_1.png,s_50_r_7.png,,
,,1,JXV,2025-08-20_11h07.00.595,mlds_experiment_numerosity_triads,2025.1.1,Win32,144.9275362,215.599,216.8564,left,0.7503,,0,83,83,83,1,83,50,15,5,s_50_r_8.png,s_15_r_4.png,s_5_r_10.png,,
,,1,JXV,2025-08-20_11h07.00.595,mlds_experiment_numerosity_triads,2025.1.1,Win32,144.9275362,,,,,,,,,,,,,,,,,,216.8565,218.8575
0.0006,6.1062,2,JXV,2025-08-21_15h27.17.027,mlds_experiment_numerosity_triads,2025.1.1,Linux x86_64,1.620482904,,,,,,,,,,,,,,,,,,,
,,2,JXV,2025-08-21_15h27.17.027,mlds_experiment_numerosity_triads,2025.1.1,Linux x86_64,1.620482904,6.1226,10.5197,left,2.9806,0.0001,0,0,0,0,1,0,60,20,10,s_60_r_3.png,s_20_r_3.png,s_10_r_3.png,,
,,2,JXV,2025-08-21_15h27.17.027,mlds_experiment_numerosity_triads,2025.1.1,Linux x86_64,1.620482904,10.5212,14.3186,right,2.3933,,0,1,1,1,1,1,10,20,50,s_10_r_5.png,s_20_r_10.png,s_50_r_10.png,,
,,2,JXV,2025-08-21_15h27.17.027,mlds_experiment_numerosity_triads,2025.1.1,Linux x86_64,1.620482904,14.3206,49.9325,right,34.2135,0.0002,0,2,2,2,1,2,10,15,40,s_10_r_2.png,s_15_r_6.png,s_40_r_6.png,,
,,2,JXV,2025-08-21_15h27.17.027,mlds_experiment_numerosity_triads,2025.1.1,Linux x86_64,1.620482904,49.9337,52.9985,left,1.8729,0.0002,0,3,3,3,1,3,50,20,15,s_50_r_8.png,s_20_r_6.png,s_15_r_3.png,,
,,2,JXV,2025-08-21_15h27.17.027,mlds_experiment_numerosity_triads,2025.1.1,Linux x86_64,1.620482904,52.9999,56.0595,left,1.8866,0.0003,0,4,4,4,1,4,5,20,40,s_5_r_2.png,s_20_r_4.png,s_40_r_1.png,,
,,2,JXV,2025-08-21_15h27.17.027,mlds_experiment_numerosity_triads,2025.1.1,Linux x86_64,1.620482904,56.0607,59.0342,right,1.8439,0.0002,0,5,5,5,1,5,50,40,20,s_50_r_1.png,s_40_r_6.png,s_20_r_4.png,,
,,2,JXV,2025-08-21_15h27.17.027,mlds_experiment_numerosity_triads,2025.1.1,Linux x86_64,1.620482904,59.0352,61.9613,right,1.8145,0.0002,0,6,6,6,1,6,5,15,60,s_5_r_7.png,s_15_r_8.png,s_60_r_5.png,,
,,2,JXV,2025-08-21_15h27.17.027,mlds_experiment_numerosity_triads,2025.1.1,Linux x86_64,1.620482904,61.9622,65.5049,left,2.4151,0.0002,0,7,7,7,1,7,60,10,5,s_60_r_4.png,s_10_r_5.png,s_5_r_8.png,,
,,2,JXV,2025-08-21_15h27.17.027,mlds_experiment_numerosity_triads,2025.1.1,Linux x86_64,1.620482904,65.5059,68.8841,right,2.2486,0.0002,0,8,8,8,1,8,15,20,60,s_15_r_1.png,s_20_r_6.png,s_60_r_5.png,,
,,2,JXV,2025-08-21_15h27.17.027,mlds_experiment_numerosity_triads,2025.1.1,Linux x86_64,1.620482904,68.8857,72.7651,right,2.3948,0.0001,0,9,9,9,1,9,40,25,5,s_40_r_5.png,s_25_r_3.png,s_5_r_9.png,,
,,2,JXV,2025-08-21_15h27.17.027,mlds_experiment_numerosity_triads,2025.1.1,Linux x86_64,1.620482904,72.767,77.061,right,2.611,0.0001,0,10,10,10,1,10,50,33,15,s_50_r_1.png,s_33_r_4.png,s_15_r_4.png,,
,,2,JXV,2025-08-21_15h27.17.027,mlds_experiment_numerosity_triads,2025.1.1,Linux x86_64,1.620482904,77.0622,80.2004,left,1.9842,0.0001,0,11,11,11,1,11,40,25,15,s_40_r_1.png,s_25_r_8.png,s_15_r_4.png,,
,,2,JXV,2025-08-21_15h27.17.027,mlds_experiment_numerosity_triads,2025.1.1,Linux x86_64,1.620482904,80.2018,84.4745,left,2.9709,0.0003,0,12,12,12,1,12,60,50,33,s_60_r_1.png,s_50_r_8.png,s_33_r_10.png,,
,,2,JXV,2025-08-21_15h27.17.027,mlds_experiment_numerosity_triads,2025.1.1,Linux x86_64,1.620482904,84.4755,88.0477,right,2.394,0.0001,0,13,13,13,1,13,25,20,10,s_25_r_7.png,s_20_r_5.png,s_10_r_7.png,,
,,2,JXV,2025-08-21_15h27.17.027,mlds_experiment_numerosity_triads,2025.1.1,Linux x86_64,1.620482904,88.0488,92.2204,left,3.0619,0.0001,0,14,14,14,1,14,40,50,60,s_40_r_9.png,s_50_r_1.png,s_60_r_6.png,,
,,2,JXV,2025-08-21_15h27.17.027,mlds_experiment_numerosity_triads,2025.1.1,Linux x86_64,1.620482904,92.2224,95.7191,left,2.3877,,0,15,15,15,1,15,5,50,60,s_5_r_5.png,s_50_r_3.png,s_60_r_9.png,,
,,2,JXV,2025-08-21_15h27.17.027,mlds_experiment_numerosity_triads,2025.1.1,Linux x86_64,1.620482904,95.7202,98.7496,left,1.9359,0.0001,0,16,16,16,1,16,60,15,10,s_60_r_3.png,s_15_r_9.png,s_10_r_5.png,,
,,2,JXV,2025-08-21_15h27.17.027,mlds_experiment_numerosity_triads,2025.1.1,Linux x86_64,1.620482904,98.7507,102.2029,left,2.3516,0.0001,0,17,17,17,1,17,15,33,40,s_15_r_7.png,s_33_r_8.png,s_40_r_9.png,,
,,2,JXV,2025-08-21_15h27.17.027,mlds_experiment_numerosity_triads,2025.1.1,Linux x86_64,1.620482904,102.2041,105.6965,right,2.3819,0.0001,0,18,18,18,1,18,40,33,10,s_40_r_3.png,s_33_r_8.png,s_10_r_8.png,,
,,2,JXV,2025-08-21_15h27.17.027,mlds_experiment_numerosity_triads,2025.1.1,Linux x86_64,1.620482904,105.6977,108.6237,right,1.7902,0.0002,0,19,19,19,1,19,60,33,10,s_60_r_8.png,s_33_r_2.png,s_10_r_10.png,,
,,2,JXV,2025-08-21_15h27.17.027,mlds_experiment_numerosity_triads,2025.1.1,Linux x86_64,1.620482904,108.6246,112.1259,left,2.3921,0.0001,0,20,20,20,1,20,20,50,60,s_20_r_10.png,s_50_r_3.png,s_60_r_7.png,,
,,2,JXV,2025-08-21_15h27.17.027,mlds_experiment_numerosity_triads,2025.1.1,Linux x86_64,1.620482904,112.1278,115.6592,right,2.4199,0.0001,0,21,21,21,1,21,15,25,60,s_15_r_9.png,s_25_r_3.png,s_60_r_1.png,,
,,2,JXV,2025-08-21_15h27.17.027,mlds_experiment_numerosity_triads,2025.1.1,Linux x86_64,1.620482904,115.6601,120.2708,left,3.5163,0.0001,0,22,22,22,1,22,15,20,25,s_15_r_8.png,s_20_r_8.png,s_25_r_3.png,,
,,2,JXV,2025-08-21_15h27.17.027,mlds_experiment_numerosity_triads,2025.1.1,Linux x86_64,1.620482904,120.272,123.1917,left,1.5015,,0,23,23,23,1,23,10,50,60,s_10_r_5.png,s_50_r_10.png,s_60_r_5.png,,
,,2,JXV,2025-08-21_15h27.17.027,mlds_experiment_numerosity_triads,2025.1.1,Linux x86_64,1.620482904,123.1928,126.8988,left,2.2928,,0,24,24,24,1,24,50,25,20,s_50_r_9.png,s_25_r_5.png,s_20_r_5.png,,
,,2,JXV,2025-08-21_15h27.17.027,mlds_experiment_numerosity_triads,2025.1.1,Linux x86_64,1.620482904,126.9,130.6061,left,2.4083,,0,25,25,25,1,25,15,40,50,s_15_r_9.png,s_40_r_2.png,s_50_r_10.png,,
,,2,JXV,2025-08-21_15h27.17.027,mlds_experiment_numerosity_triads,2025.1.1,Linux x86_64,1.620482904,130.6071,134.654,left,2.9628,0.0001,0,26,26,26,1,26,20,40,60,s_20_r_8.png,s_40_r_2.png,s_60_r_6.png,,
,,2,JXV,2025-08-21_15h27.17.027,mlds_experiment_numerosity_triads,2025.1.1,Linux x86_64,1.620482904,134.656,137.568,left,1.8117,0.0002,0,27,27,27,1,27,50,10,5,s_50_r_6.png,s_10_r_7.png,s_5_r_10.png,,
,,2,JXV,2025-08-21_15h27.17.027,mlds_experiment_numerosity_triads,2025.1.1,Linux x86_64,1.620482904,137.5691,141.0534,right,2.3569,0.0001,0,28,28,28,1,28,20,10,5,s_20_r_10.png,s_10_r_7.png,s_5_r_8.png,,
,,2,JXV,2025-08-21_15h27.17.027,mlds_experiment_numerosity_triads,2025.1.1,Linux x86_64,1.620482904,141.0545,145.18,left,3.0396,0.0001,0,29,29,29,1,29,50,15,10,s_50_r_5.png,s_15_r_7.png,s_10_r_9.png,,
,,2,JXV,2025-08-21_15h27.17.027,mlds_experiment_numerosity_triads,2025.1.1,Linux x86_64,1.620482904,145.1808,150.0203,left,3.7359,0.0001,0,30,30,30,1,30,5,25,33,s_5_r_7.png,s_25_r_3.png,s_33_r_1.png,,
,,2,JXV,2025-08-21_15h27.17.027,mlds_experiment_numerosity_triads,2025.1.1,Linux x86_64,1.620482904,150.0215,153.3019,right,2.0041,0.0002,0,31,31,31,1,31,40,33,5,s_40_r_6.png,s_33_r_4.png,s_5_r_1.png,,
,,2,JXV,2025-08-21_15h27.17.027,mlds_experiment_numerosity_triads,2025.1.1,Linux x86_64,1.620482904,153.303,157.25,right,2.5552,,0,32,32,32,1,32,50,40,25,s_50_r_1.png,s_40_r_3.png,s_25_r_10.png,,
,,2,JXV,2025-08-21_15h27.17.027,mlds_experiment_numerosity_triads,2025.1.1,Linux x86_64,1.620482904,157.2519,161.3373,left,2.9704,0.0002,0,33,33,33,1,33,25,20,5,s_25_r_3.png,s_20_r_7.png,s_5_r_3.png,,
,,2,JXV,2025-08-21_15h27.17.027,mlds_experiment_numerosity_triads,2025.1.1,Linux x86_64,1.620482904,161.3385,165.0734,left,2.6419,0.0002,0,34,34,34,1,34,50,33,20,s_50_r_2.png,s_33_r_8.png,s_20_r_1.png,,
,,2,JXV,2025-08-21_15h27.17.027,mlds_experiment_numerosity_triads,2025.1.1,Linux x86_64,1.620482904,165.0746,170.0367,right,3.6649,0.0001,0,35,35,35,1,35,50,25,5,s_50_r_10.png,s_25_r_1.png,s_5_r_7.png,,
,,2,JXV,2025-08-21_15h27.17.027,mlds_experiment_numerosity_triads,2025.1.1,Linux x86_64,1.620482904,170.0378,174.5795,right,3.1707,0.0001,0,36,36,36,1,36,10,20,40,s_10_r_7.png,s_20_r_3.png,s_40_r_4.png,,
,,2,JXV,2025-08-21_15h27.17.027,mlds_experiment_numerosity_triads,2025.1.1,Linux x86_64,1.620482904,174.5808,178.5081,right,2.3105,0.0001,0,37,37,37,1,37,20,25,40,s_20_r_10.png,s_25_r_7.png,s_40_r_1.png,,
,,2,JXV,2025-08-21_15h27.17.027,mlds_experiment_numerosity_triads,2025.1.1,Linux x86_64,1.620482904,178.5095,181.7233,right,1.9861,,0,38,38,38,1,38,15,10,5,s_15_r_6.png,s_10_r_3.png,s_5_r_2.png,,
,,2,JXV,2025-08-21_15h27.17.027,mlds_experiment_numerosity_triads,2025.1.1,Linux x86_64,1.620482904,181.7253,188.3452,left,5.4811,0.0001,0,39,39,39,1,39,25,15,10,s_25_r_6.png,s_15_r_5.png,s_10_r_8.png,,
,,2,JXV,2025-08-21_15h27.17.027,mlds_experiment_numerosity_triads,2025.1.1,Linux x86_64,1.620482904,188.3463,191.8527,right,2.3934,0.0001,0,40,40,40,1,40,33,15,5,s_33_r_9.png,s_15_r_5.png,s_5_r_3.png,,
,,2,JXV,2025-08-21_15h27.17.027,mlds_experiment_numerosity_triads,2025.1.1,Linux x86_64,1.620482904,191.8536,194.7424,right,1.7874,,0,41,41,41,1,41,25,33,50,s_25_r_4.png,s_33_r_4.png,s_50_r_7.png,,
,,2,JXV,2025-08-21_15h27.17.027,mlds_experiment_numerosity_triads,2025.1.1,Linux x86_64,1.620482904,194.7434,197.7354,left,1.8548,0.0002,0,42,42,42,1,42,40,15,5,s_40_r_9.png,s_15_r_9.png,s_5_r_8.png,,
,,2,JXV,2025-08-21_15h27.17.027,mlds_experiment_numerosity_triads,2025.1.1,Linux x86_64,1.620482904,197.7367,201.284,right,2.388,0.0002,0,43,43,43,1,43,5,20,50,s_5_r_6.png,s_20_r_3.png,s_50_r_9.png,,
,,2,JXV,2025-08-21_15h27.17.027,mlds_experiment_numerosity_triads,2025.1.1,Linux x86_64,1.620482904,201.2857,204.8668,left,2.433,,0,44,44,44,1,44,60,33,25,s_60_r_6.png,s_33_r_10.png,s_25_r_5.png,,
,,2,JXV,2025-08-21_15h27.17.027,mlds_experiment_numerosity_triads,2025.1.1,Linux x86_64,1.620482904,204.869,208.432,left,2.4007,,0,45,45,45,1,45,50,15,5,s_50_r_4.png,s_15_r_8.png,s_5_r_3.png,,
,,2,JXV,2025-08-21_15h27.17.027,mlds_experiment_numerosity_triads,2025.1.1,Linux x86_64,1.620482904,208.4331,211.4944,right,1.9257,0.0001,0,46,46,46,1,46,60,40,15,s_60_r_4.png,s_40_r_5.png,s_15_r_9.png,,
,,2,JXV,2025-08-21_15h27.17.027,mlds_experiment_numerosity_triads,2025.1.1,Linux x86_64,1.620482904,211.4956,216.2089,left,3.502,0.0002,0,47,47,47,1,47,5,40,60,s_5_r_5.png,s_40_r_2.png,s_60_r_2.png,,
,,2,JXV,2025-08-21_15h27.17.027,mlds_experiment_numerosity_triads,2025.1.1,Linux x86_64,1.620482904,216.21,220.3172,right,2.9851,0.0001,0,48,48,48,1,48,40,25,10,s_40_r_10.png,s_25_r_7.png,s_10_r_8.png,,
,,2,JXV,2025-08-21_15h27.17.027,mlds_experiment_numerosity_triads,2025.1.1,Linux x86_64,1.620482904,220.3183,223.8055,right,2.3676,0.0001,0,49,49,49,1,49,33,40,50,s_33_r_9.png,s_40_r_5.png,s_50_r_5.png,,
,,2,JXV,2025-08-21_15h27.17.027,mlds_experiment_numerosity_triads,2025.1.1,Linux x86_64,1.620482904,223.8066,227.8949,right,2.9831,0,0,50,50,50,1,50,60,20,5,s_60_r_8.png,s_20_r_4.png,s_5_r_3.png,,
,,2,JXV,2025-08-21_15h27.17.027,mlds_experiment_numerosity_triads,2025.1.1,Linux x86_64,1.620482904,227.8959,233.3756,left,4.3659,0.0001,0,51,51,51,1,51,33,40,60,s_33_r_7.png,s_40_r_7.png,s_60_r_10.png,,
,,2,JXV,2025-08-21_15h27.17.027,mlds_experiment_numerosity_triads,2025.1.1,Linux x86_64,1.620482904,233.3767,237.0371,right,2.2291,0.0002,0,52,52,52,1,52,15,20,33,s_15_r_3.png,s_20_r_8.png,s_33_r_6.png,,
,,2,JXV,2025-08-21_15h27.17.027,mlds_experiment_numerosity_triads,2025.1.1,Linux x86_64,1.620482904,237.0382,243.4671,right,4.9987,0.0002,0,53,53,53,1,53,60,50,25,s_60_r_7.png,s_50_r_9.png,s_25_r_5.png,,
,,2,JXV,2025-08-21_15h27.17.027,mlds_experiment_numerosity_triads,2025.1.1,Linux x86_64,1.620482904,243.4682,265.4242,left,20.8518,,0,54,54,54,1,54,60,25,10,s_60_r_5.png,s_25_r_9.png,s_10_r_1.png,,
,,2,JXV,2025-08-21_15h27.17.027,mlds_experiment_numerosity_triads,2025.1.1,Linux x86_64,1.620482904,265.4252,290.5491,right,24.0033,,0,55,55,55,1,55,20,15,5,s_20_r_9.png,s_15_r_8.png,s_5_r_9.png,,
,,2,JXV,2025-08-21_15h27.17.027,mlds_experiment_numerosity_triads,2025.1.1,Linux x86_64,1.620482904,290.5505,298.747,right,7.0902,0.0001,0,56,56,56,1,56,10,20,33,s_10_r_4.png,s_20_r_6.png,s_33_r_10.png,,
,,2,JXV,2025-08-21_15h27.17.027,mlds_experiment_numerosity_triads,2025.1.1,Linux x86_64,1.620482904,298.7482,309.4228,left,9.552,0.0001,0,57,57,57,1,57,40,10,5,s_40_r_9.png,s_10_r_7.png,s_5_r_4.png,,
,,2,JXV,2025-08-21_15h27.17.027,mlds_experiment_numerosity_triads,2025.1.1,Linux x86_64,1.620482904,309.4239,313.768,left,2.9688,0.0001,0,58,58,58,1,58,25,10,5,s_25_r_10.png,s_10_r_1.png,s_5_r_7.png,,
,,2,JXV,2025-08-21_15h27.17.027,mlds_experiment_numerosity_triads,2025.1.1,Linux x86_64,1.620482904,313.7696,443.7792,left,128.5472,0.0001,0,59,59,59,1,59,50,25,10,s_50_r_7.png,s_25_r_1.png,s_10_r_3.png,,
,,2,JXV,2025-08-21_15h27.17.027,mlds_experiment_numerosity_triads,2025.1.1,Linux x86_64,1.620482904,443.7802,506.9081,right,62.0292,0.0002,0,60,60,60,1,60,5,15,25,s_5_r_10.png,s_15_r_5.png,s_25_r_7.png,,
,,2,JXV,2025-08-21_15h27.17.027,mlds_experiment_numerosity_triads,2025.1.1,Linux x86_64,1.620482904,506.9092,523.7754,right,15.7358,0.0001,0,61,61,61,1,61,33,25,10,s_33_r_4.png,s_25_r_1.png,s_10_r_7.png,,
,,2,JXV,2025-08-21_15h27.17.027,mlds_experiment_numerosity_triads,2025.1.1,Linux x86_64,1.620482904,523.7764,573.3147,right,48.2583,,0,62,62,62,1,62,15,25,33,s_15_r_6.png,s_25_r_5.png,s_33_r_3.png,,
,,2,JXV,2025-08-21_15h27.17.027,mlds_experiment_numerosity_triads,2025.1.1,Linux x86_64,1.620482904,573.316,589.8755,right,14.9467,0.0001,0,63,63,63,1,63,20,25,33,s_20_r_4.png,s_25_r_10.png,s_33_r_8.png,,
,,2,JXV,2025-08-21_15h27.17.027,mlds_experiment_numerosity_triads,2025.1.1,Linux x86_64,1.620482904,589.8768,592.7626,left,1.7656,0.0001,0,64,64,64,1,64,5,40,50,s_5_r_5.png,s_40_r_10.png,s_50_r_6.png,,
,,2,JXV,2025-08-21_15h27.17.027,mlds_experiment_numerosity_triads,2025.1.1,Linux x86_64,1.620482904,592.7638,598.0349,right,4.1591,0,0,65,65,65,1,65,60,25,5,s_60_r_4.png,s_25_r_10.png,s_5_r_6.png,,
,,2,JXV,2025-08-21_15h27.17.027,mlds_experiment_numerosity_triads,2025.1.1,Linux x86_64,1.620482904,598.0357,603.3996,left,4.2773,,0,66,66,66,1,66,10,15,33,s_10_r_2.png,s_15_r_3.png,s_33_r_9.png,,
,,2,JXV,2025-08-21_15h27.17.027,mlds_experiment_numerosity_triads,2025.1.1,Linux x86_64,1.620482904,603.4005,606.3302,right,1.8133,0,0,67,67,67,1,67,60,33,5,s_60_r_6.png,s_33_r_6.png,s_5_r_3.png,,
,,2,JXV,2025-08-21_15h27.17.027,mlds_experiment_numerosity_triads,2025.1.1,Linux x86_64,1.620482904,606.3312,613.8649,left,6.4294,0.0001,0,68,68,68,1,68,10,33,50,s_10_r_7.png,s_33_r_9.png,s_50_r_7.png,,
,,2,JXV,2025-08-21_15h27.17.027,mlds_experiment_numerosity_triads,2025.1.1,Linux x86_64,1.620482904,613.866,619.0758,right,3.7967,0.0002,0,69,69,69,1,69,15,20,40,s_15_r_5.png,s_20_r_10.png,s_40_r_1.png,,
,,2,JXV,2025-08-21_15h27.17.027,mlds_experiment_numerosity_triads,2025.1.1,Linux x86_64,1.620482904,619.0772,624.7871,left,4.2476,0.0001,0,70,70,70,1,70,60,25,20,s_60_r_6.png,s_25_r_10.png,s_20_r_8.png,,
,,2,JXV,2025-08-21_15h27.17.027,mlds_experiment_numerosity_triads,2025.1.1,Linux x86_64,1.620482904,624.7883,635.0509,left,9.1151,0.0002,0,71,71,71,1,71,10,40,50,s_10_r_10.png,s_40_r_7.png,s_50_r_2.png,,
,,2,JXV,2025-08-21_15h27.17.027,mlds_experiment_numerosity_triads,2025.1.1,Linux x86_64,1.620482904,635.0521,639.2091,left,2.9786,,0,72,72,72,1,72,33,10,5,s_33_r_6.png,s_10_r_9.png,s_5_r_3.png,,
,,2,JXV,2025-08-21_15h27.17.027,mlds_experiment_numerosity_triads,2025.1.1,Linux x86_64,1.620482904,639.2101,650.4211,left,10.1075,0,0,73,73,73,1,73,5,33,50,s_5_r_3.png,s_33_r_3.png,s_50_r_1.png,,
,,2,JXV,2025-08-21_15h27.17.027,mlds_experiment_numerosity_triads,2025.1.1,Linux x86_64,1.620482904,650.4224,683.8717,right,32.2516,0.0001,0,74,74,74,1,74,15,25,50,s_15_r_8.png,s_25_r_6.png,s_50_r_3.png,,
,,2,JXV,2025-08-21_15h27.17.027,mlds_experiment_numerosity_triads,2025.1.1,Linux x86_64,1.620482904,683.8728,708.3893,right,23.4128,0,0,75,75,75,1,75,25,40,60,s_25_r_5.png,s_40_r_9.png,s_60_r_7.png,,
,,2,JXV,2025-08-21_15h27.17.027,mlds_experiment_numerosity_triads,2025.1.1,Linux x86_64,1.620482904,708.3903,712.487,right,2.9773,0.0001,0,76,76,76,1,76,15,33,60,s_15_r_3.png,s_33_r_1.png,s_60_r_2.png,,
,,2,JXV,2025-08-21_15h27.17.027,mlds_experiment_numerosity_triads,2025.1.1,Linux x86_64,1.620482904,712.4878,717.1362,left,3.5531,0,0,77,77,77,1,77,5,20,33,s_5_r_1.png,s_20_r_5.png,s_33_r_8.png,,
,,2,JXV,2025-08-21_15h27.17.027,mlds_experiment_numerosity_triads,2025.1.1,Linux x86_64,1.620482904,717.1372,724.8602,right,6.6234,0.0001,0,78,78,78,1,78,60,40,10,s_60_r_6.png,s_40_r_10.png,s_10_r_3.png,,
,,2,JXV,2025-08-21_15h27.17.027,mlds_experiment_numerosity_triads,2025.1.1,Linux x86_64,1.620482904,724.8611,728.9703,left,2.9812,,0,79,79,79,1,79,20,15,10,s_20_r_5.png,s_15_r_9.png,s_10_r_1.png,,
,,2,JXV,2025-08-21_15h27.17.027,mlds_experiment_numerosity_triads,2025.1.1,Linux x86_64,1.620482904,728.9711,731.9916,left,1.9253,0.0001,0,80,80,80,1,80,15,50,60,s_15_r_7.png,s_50_r_4.png,s_60_r_8.png,,
,,2,JXV,2025-08-21_15h27.17.027,mlds_experiment_numerosity_triads,2025.1.1,Linux x86_64,1.620482904,731.993,736.3644,right,2.9941,0.0002,0,81,81,81,1,81,40,33,25,s_40_r_2.png,s_33_r_7.png,s_25_r_6.png,,
,,2,JXV,2025-08-21_15h27.17.027,mlds_experiment_numerosity_triads,2025.1.1,Linux x86_64,1.620482904,736.3659,740.8432,right,3.0146,0.0001,0,82,82,82,1,82,60,33,20,s_60_r_7.png,s_33_r_10.png,s_20_r_6.png,,
,,2,JXV,2025-08-21_15h27.17.027,mlds_experiment_numerosity_triads,2025.1.1,Linux x86_64,1.620482904,740.8444,744.5057,right,2.3802,0.0002,0,83,83,83,1,83,40,33,20,s_40_r_2.png,s_33_r_3.png,s_20_r_7.png,,
,,2,JXV,2025-08-21_15h27.17.027,mlds_experiment_numerosity_triads,2025.1.1,Linux x86_64,1.620482904,,,,,,,,,,,,,,,,,,744.5063,746.2077
