instruct.started,instruct.stopped,session,participant,date,expName,psychopyVersion,OS,frameRate,trial.started,trial.stopped,resp.keys,resp.rt,resp.duration,trials.thisRepN,trials.thisTrialN,trials.thisN,trials.thisIndex,trials.ran,trial,s1,s2,s3,im1,im2,im3,thanks.started,thanks.stopped
0,42.636,1,ch,2025-08-18_15h38.18.723,mlds_experiment_numerosity_triads,2025.1.1,MacIntel,57.47126437,,,,,,,,,,,,,,,,,,,
,,1,ch,2025-08-18_15h38.18.723,mlds_experiment_numerosity_triads,2025.1.1,MacIntel,57.47126437,42.645,44.35,right,1.173,,0,0,0,0,1,0,60,40,30,s_60_r_5.png,s_40_r_8.png,s_30_r_8.png,,
,,1,ch,2025-08-18_15h38.18.723,mlds_experiment_numerosity_triads,2025.1.1,MacIntel,57.47126437,44.352,47.583,left,2.692,,0,1,1,1,1,1,20,40,60,s_20_r_9.png,s_40_r_7.png,s_60_r_2.png,,
,,1,ch,2025-08-18_15h38.18.723,mlds_experiment_numerosity_triads,2025.1.1,MacIntel,57.47126437,47.585,49.466,left,1.347,,0,2,2,2,1,2,10,40,50,s_10_r_1.png,s_40_r_3.png,s_50_r_9.png,,
,,1,ch,2025-08-18_15h38.18.723,mlds_experiment_numerosity_triads,2025.1.1,MacIntel,57.47126437,49.468,52.616,right,2.611,,0,3,3,3,1,3,25,50,60,s_25_r_2.png,s_50_r_4.png,s_60_r_10.png,,
,,1,ch,2025-08-18_15h38.18.723,mlds_experiment_numerosity_triads,2025.1.1,MacIntel,57.47126437,52.618,57.748,right,4.597,,0,4,4,4,1,4,20,25,30,s_20_r_1.png,s_25_r_8.png,s_30_r_4.png,,
,,1,ch,2025-08-18_15h38.18.723,mlds_experiment_numerosity_triads,2025.1.1,MacIntel,57.47126437,57.751,61.633,right,3.341,,0,5,5,5,1,5,5,30,40,s_5_r_2.png,s_30_r_3.png,s_40_r_2.png,,
,,1,ch,2025-08-18_15h38.18.723,mlds_experiment_numerosity_triads,2025.1.1,MacIntel,57.47126437,61.634,64.116,right,1.94,,0,6,6,6,1,6,15,25,30,s_15_r_1.png,s_25_r_5.png,s_30_r_2.png,,
,,1,ch,2025-08-18_15h38.18.723,mlds_experiment_numerosity_triads,2025.1.1,MacIntel,57.47126437,64.118,66.434,left,1.775,,0,7,7,7,1,7,5,10,30,s_5_r_4.png,s_10_r_9.png,s_30_r_6.png,,
,,1,ch,2025-08-18_15h38.18.723,mlds_experiment_numerosity_triads,2025.1.1,MacIntel,57.47126437,66.437,69.233,right,2.26,,0,8,8,8,1,8,25,20,10,s_25_r_6.png,s_20_r_5.png,s_10_r_7.png,,
,,1,ch,2025-08-18_15h38.18.723,mlds_experiment_numerosity_triads,2025.1.1,MacIntel,57.47126437,69.235,71.883,left,2.109,,0,9,9,9,1,9,5,10,60,s_5_r_2.png,s_10_r_7.png,s_60_r_8.png,,
,,1,ch,2025-08-18_15h38.18.723,mlds_experiment_numerosity_triads,2025.1.1,MacIntel,57.47126437,71.885,95.549,left,23.127,,0,10,10,10,1,10,15,25,40,s_15_r_10.png,s_25_r_5.png,s_40_r_6.png,,
,,1,ch,2025-08-18_15h38.18.723,mlds_experiment_numerosity_triads,2025.1.1,MacIntel,57.47126437,95.552,97.85,right,1.755,,0,11,11,11,1,11,50,20,15,s_50_r_3.png,s_20_r_3.png,s_15_r_2.png,,
,,1,ch,2025-08-18_15h38.18.723,mlds_experiment_numerosity_triads,2025.1.1,MacIntel,57.47126437,97.851,99.685,left,1.294,,0,12,12,12,1,12,60,50,15,s_60_r_3.png,s_50_r_7.png,s_15_r_2.png,,
,,1,ch,2025-08-18_15h38.18.723,mlds_experiment_numerosity_triads,2025.1.1,MacIntel,57.47126437,99.688,101.933,right,1.714,,0,13,13,13,1,13,40,20,10,s_40_r_1.png,s_20_r_8.png,s_10_r_4.png,,
,,1,ch,2025-08-18_15h38.18.723,mlds_experiment_numerosity_triads,2025.1.1,MacIntel,57.47126437,101.934,103.816,left,1.342,,0,14,14,14,1,14,60,30,5,s_60_r_1.png,s_30_r_4.png,s_5_r_10.png,,
,,1,ch,2025-08-18_15h38.18.723,mlds_experiment_numerosity_triads,2025.1.1,MacIntel,57.47126437,103.818,107.115,right,2.763,,0,15,15,15,1,15,60,30,25,s_60_r_7.png,s_30_r_4.png,s_25_r_9.png,,
,,1,ch,2025-08-18_15h38.18.723,mlds_experiment_numerosity_triads,2025.1.1,MacIntel,57.47126437,107.117,108.866,left,1.225,,0,16,16,16,1,16,10,15,60,s_10_r_4.png,s_15_r_9.png,s_60_r_7.png,,
,,1,ch,2025-08-18_15h38.18.723,mlds_experiment_numerosity_triads,2025.1.1,MacIntel,57.47126437,108.867,110.799,right,1.393,,0,17,17,17,1,17,5,20,30,s_5_r_6.png,s_20_r_3.png,s_30_r_10.png,,
,,1,ch,2025-08-18_15h38.18.723,mlds_experiment_numerosity_triads,2025.1.1,MacIntel,57.47126437,110.801,114.067,left,2.741,,0,18,18,18,1,18,5,10,40,s_5_r_1.png,s_10_r_7.png,s_40_r_2.png,,
,,1,ch,2025-08-18_15h38.18.723,mlds_experiment_numerosity_triads,2025.1.1,MacIntel,57.47126437,114.069,118.233,left,3.627,,0,19,19,19,1,19,25,30,40,s_25_r_2.png,s_30_r_8.png,s_40_r_9.png,,
,,1,ch,2025-08-18_15h38.18.723,mlds_experiment_numerosity_triads,2025.1.1,MacIntel,57.47126437,118.234,120.099,right,1.326,,0,20,20,20,1,20,10,50,60,s_10_r_2.png,s_50_r_1.png,s_60_r_8.png,,
,,1,ch,2025-08-18_15h38.18.723,mlds_experiment_numerosity_triads,2025.1.1,MacIntel,57.47126437,120.101,126.266,left,5.627,,0,21,21,21,1,21,40,30,15,s_40_r_5.png,s_30_r_8.png,s_15_r_8.png,,
,,1,ch,2025-08-18_15h38.18.723,mlds_experiment_numerosity_triads,2025.1.1,MacIntel,57.47126437,126.268,128.033,right,1.224,,0,22,22,22,1,22,15,40,60,s_15_r_3.png,s_40_r_4.png,s_60_r_7.png,,
,,1,ch,2025-08-18_15h38.18.723,mlds_experiment_numerosity_triads,2025.1.1,MacIntel,57.47126437,128.035,130.633,left,2.059,,0,23,23,23,1,23,15,25,60,s_15_r_3.png,s_25_r_7.png,s_60_r_4.png,,
,,1,ch,2025-08-18_15h38.18.723,mlds_experiment_numerosity_triads,2025.1.1,MacIntel,57.47126437,130.635,135.984,left,4.812,,0,24,24,24,1,24,60,40,10,s_60_r_3.png,s_40_r_1.png,s_10_r_3.png,,
,,1,ch,2025-08-18_15h38.18.723,mlds_experiment_numerosity_triads,2025.1.1,MacIntel,57.47126437,135.988,138.85,right,2.326,,0,25,25,25,1,25,50,15,10,s_50_r_2.png,s_15_r_2.png,s_10_r_3.png,,
,,1,ch,2025-08-18_15h38.18.723,mlds_experiment_numerosity_triads,2025.1.1,MacIntel,57.47126437,138.852,141.467,left,2.084,,0,26,26,26,1,26,40,25,5,s_40_r_3.png,s_25_r_7.png,s_5_r_3.png,,
,,1,ch,2025-08-18_15h38.18.723,mlds_experiment_numerosity_triads,2025.1.1,MacIntel,57.47126437,141.469,144.616,left,2.607,,0,27,27,27,1,27,50,25,10,s_50_r_7.png,s_25_r_3.png,s_10_r_10.png,,
,,1,ch,2025-08-18_15h38.18.723,mlds_experiment_numerosity_triads,2025.1.1,MacIntel,57.47126437,144.618,149.833,left,4.684,,0,28,28,28,1,28,30,20,10,s_30_r_7.png,s_20_r_1.png,s_10_r_10.png,,
,,1,ch,2025-08-18_15h38.18.723,mlds_experiment_numerosity_triads,2025.1.1,MacIntel,57.47126437,149.834,152.716,right,2.344,,0,29,29,29,1,29,5,15,40,s_5_r_3.png,s_15_r_5.png,s_40_r_2.png,,
,,1,ch,2025-08-18_15h38.18.723,mlds_experiment_numerosity_triads,2025.1.1,MacIntel,57.47126437,152.718,156.883,left,3.628,,0,30,30,30,1,30,40,25,10,s_40_r_9.png,s_25_r_3.png,s_10_r_1.png,,
,,1,ch,2025-08-18_15h38.18.723,mlds_experiment_numerosity_triads,2025.1.1,MacIntel,57.47126437,156.885,158.833,left,1.415,,0,31,31,31,1,31,5,15,60,s_5_r_5.png,s_15_r_4.png,s_60_r_6.png,,
,,1,ch,2025-08-18_15h38.18.723,mlds_experiment_numerosity_triads,2025.1.1,MacIntel,57.47126437,158.834,162.583,left,3.235,,0,32,32,32,1,32,5,10,15,s_5_r_5.png,s_10_r_1.png,s_15_r_2.png,,
,,1,ch,2025-08-18_15h38.18.723,mlds_experiment_numerosity_triads,2025.1.1,MacIntel,57.47126437,162.584,167.268,right,4.159,,0,33,33,33,1,33,10,25,30,s_10_r_5.png,s_25_r_8.png,s_30_r_6.png,,
,,1,ch,2025-08-18_15h38.18.723,mlds_experiment_numerosity_triads,2025.1.1,MacIntel,57.47126437,167.272,170.466,right,2.664,,0,34,34,34,1,34,60,25,10,s_60_r_2.png,s_25_r_7.png,s_10_r_5.png,,
,,1,ch,2025-08-18_15h38.18.723,mlds_experiment_numerosity_triads,2025.1.1,MacIntel,57.47126437,170.469,177.583,right,6.575,,0,35,35,35,1,35,40,30,20,s_40_r_4.png,s_30_r_2.png,s_20_r_9.png,,
,,1,ch,2025-08-18_15h38.18.723,mlds_experiment_numerosity_triads,2025.1.1,MacIntel,57.47126437,177.585,182.4,right,4.275,,0,36,36,36,1,36,60,40,25,s_60_r_8.png,s_40_r_10.png,s_25_r_6.png,,
,,1,ch,2025-08-18_15h38.18.723,mlds_experiment_numerosity_triads,2025.1.1,MacIntel,57.47126437,182.402,185.383,right,2.444,,0,37,37,37,1,37,5,15,20,s_5_r_3.png,s_15_r_1.png,s_20_r_7.png,,
,,1,ch,2025-08-18_15h38.18.723,mlds_experiment_numerosity_triads,2025.1.1,MacIntel,57.47126437,185.385,187.899,right,1.979,,0,38,38,38,1,38,5,30,50,s_5_r_9.png,s_30_r_2.png,s_50_r_2.png,,
,,1,ch,2025-08-18_15h38.18.723,mlds_experiment_numerosity_triads,2025.1.1,MacIntel,57.47126437,187.901,190.033,left,1.592,,0,39,39,39,1,39,5,10,50,s_5_r_10.png,s_10_r_8.png,s_50_r_10.png,,
,,1,ch,2025-08-18_15h38.18.723,mlds_experiment_numerosity_triads,2025.1.1,MacIntel,57.47126437,190.035,197.917,right,7.352,,0,40,40,40,1,40,20,40,50,s_20_r_7.png,s_40_r_1.png,s_50_r_10.png,,
,,1,ch,2025-08-18_15h38.18.723,mlds_experiment_numerosity_triads,2025.1.1,MacIntel,57.47126437,197.918,201.267,left,2.812,,0,41,41,41,1,41,50,40,5,s_50_r_2.png,s_40_r_3.png,s_5_r_5.png,,
,,1,ch,2025-08-18_15h38.18.723,mlds_experiment_numerosity_triads,2025.1.1,MacIntel,57.47126437,201.271,203.683,left,1.876,,0,42,42,42,1,42,10,20,50,s_10_r_5.png,s_20_r_4.png,s_50_r_7.png,,
,,1,ch,2025-08-18_15h38.18.723,mlds_experiment_numerosity_triads,2025.1.1,MacIntel,57.47126437,203.685,208.117,left,3.893,,0,43,43,43,1,43,50,30,10,s_50_r_10.png,s_30_r_8.png,s_10_r_7.png,,
,,1,ch,2025-08-18_15h38.18.723,mlds_experiment_numerosity_triads,2025.1.1,MacIntel,57.47126437,208.118,210.233,left,1.581,,0,44,44,44,1,44,10,20,60,s_10_r_8.png,s_20_r_4.png,s_60_r_3.png,,
,,1,ch,2025-08-18_15h38.18.723,mlds_experiment_numerosity_triads,2025.1.1,MacIntel,57.47126437,210.235,212.584,left,1.811,,0,45,45,45,1,45,10,30,60,s_10_r_4.png,s_30_r_5.png,s_60_r_7.png,,
,,1,ch,2025-08-18_15h38.18.723,mlds_experiment_numerosity_triads,2025.1.1,MacIntel,57.47126437,212.586,215.399,left,2.276,,0,46,46,46,1,46,60,50,20,s_60_r_3.png,s_50_r_6.png,s_20_r_3.png,,
,,1,ch,2025-08-18_15h38.18.723,mlds_experiment_numerosity_triads,2025.1.1,MacIntel,57.47126437,215.401,219.633,right,3.717,,0,47,47,47,1,47,50,25,20,s_50_r_10.png,s_25_r_7.png,s_20_r_6.png,,
,,1,ch,2025-08-18_15h38.18.723,mlds_experiment_numerosity_triads,2025.1.1,MacIntel,57.47126437,219.635,221.8,left,1.626,,0,48,48,48,1,48,50,20,5,s_50_r_10.png,s_20_r_2.png,s_5_r_7.png,,
,,1,ch,2025-08-18_15h38.18.723,mlds_experiment_numerosity_triads,2025.1.1,MacIntel,57.47126437,221.802,225.933,right,3.598,,0,49,49,49,1,49,15,20,25,s_15_r_6.png,s_20_r_1.png,s_25_r_7.png,,
,,1,ch,2025-08-18_15h38.18.723,mlds_experiment_numerosity_triads,2025.1.1,MacIntel,57.47126437,225.934,230.332,right,3.863,,0,50,50,50,1,50,30,15,10,s_30_r_1.png,s_15_r_8.png,s_10_r_10.png,,
,,1,ch,2025-08-18_15h38.18.723,mlds_experiment_numerosity_triads,2025.1.1,MacIntel,57.47126437,230.334,232.301,left,1.445,,0,51,51,51,1,51,25,20,5,s_25_r_7.png,s_20_r_1.png,s_5_r_1.png,,
,,1,ch,2025-08-18_15h38.18.723,mlds_experiment_numerosity_triads,2025.1.1,MacIntel,57.47126437,232.305,235.4,right,2.555,,0,52,52,52,1,52,50,30,15,s_50_r_3.png,s_30_r_10.png,s_15_r_4.png,,
,,1,ch,2025-08-18_15h38.18.723,mlds_experiment_numerosity_triads,2025.1.1,MacIntel,57.47126437,235.402,237.616,right,1.686,,0,53,53,53,1,53,60,30,20,s_60_r_2.png,s_30_r_8.png,s_20_r_9.png,,
,,1,ch,2025-08-18_15h38.18.723,mlds_experiment_numerosity_triads,2025.1.1,MacIntel,57.47126437,237.618,239.333,right,1.175,,0,54,54,54,1,54,5,15,25,s_5_r_8.png,s_15_r_8.png,s_25_r_3.png,,
,,1,ch,2025-08-18_15h38.18.723,mlds_experiment_numerosity_triads,2025.1.1,MacIntel,57.47126437,239.335,242.25,right,2.373,,0,55,55,55,1,55,30,50,60,s_30_r_6.png,s_50_r_10.png,s_60_r_6.png,,
,,1,ch,2025-08-18_15h38.18.723,mlds_experiment_numerosity_triads,2025.1.1,MacIntel,57.47126437,242.252,244.834,right,2.051,,0,56,56,56,1,56,5,15,50,s_5_r_3.png,s_15_r_7.png,s_50_r_4.png,,
,,1,ch,2025-08-18_15h38.18.723,mlds_experiment_numerosity_triads,2025.1.1,MacIntel,57.47126437,244.835,249.383,left,4.011,,0,57,57,57,1,57,10,15,40,s_10_r_7.png,s_15_r_10.png,s_40_r_2.png,,
,,1,ch,2025-08-18_15h38.18.723,mlds_experiment_numerosity_triads,2025.1.1,MacIntel,57.47126437,249.385,254.35,right,4.426,,0,58,58,58,1,58,40,20,15,s_40_r_2.png,s_20_r_5.png,s_15_r_8.png,,
,,1,ch,2025-08-18_15h38.18.723,mlds_experiment_numerosity_triads,2025.1.1,MacIntel,57.47126437,254.352,257.216,left,2.328,,0,59,59,59,1,59,15,30,60,s_15_r_1.png,s_30_r_6.png,s_60_r_1.png,,
,,1,ch,2025-08-18_15h38.18.723,mlds_experiment_numerosity_triads,2025.1.1,MacIntel,57.47126437,257.218,259.4,right,1.645,,0,60,60,60,1,60,5,25,50,s_5_r_10.png,s_25_r_1.png,s_50_r_10.png,,
,,1,ch,2025-08-18_15h38.18.723,mlds_experiment_numerosity_triads,2025.1.1,MacIntel,57.47126437,259.402,264.05,left,4.112,,0,61,61,61,1,61,50,40,15,s_50_r_8.png,s_40_r_3.png,s_15_r_8.png,,
,,1,ch,2025-08-18_15h38.18.723,mlds_experiment_numerosity_triads,2025.1.1,MacIntel,57.47126437,264.051,266.584,left,2.001,,0,62,62,62,1,62,15,20,60,s_15_r_7.png,s_20_r_9.png,s_60_r_4.png,,
,,1,ch,2025-08-18_15h38.18.723,mlds_experiment_numerosity_triads,2025.1.1,MacIntel,57.47126437,266.588,269.984,right,2.866,,0,63,63,63,1,63,40,25,20,s_40_r_8.png,s_25_r_3.png,s_20_r_8.png,,
,,1,ch,2025-08-18_15h38.18.723,mlds_experiment_numerosity_triads,2025.1.1,MacIntel,57.47126437,269.986,272.183,right,1.668,,0,64,64,64,1,64,5,15,30,s_5_r_1.png,s_15_r_8.png,s_30_r_2.png,,
,,1,ch,2025-08-18_15h38.18.723,mlds_experiment_numerosity_triads,2025.1.1,MacIntel,57.47126437,272.184,275.05,right,2.335,,0,65,65,65,1,65,30,20,15,s_30_r_1.png,s_20_r_2.png,s_15_r_8.png,,
,,1,ch,2025-08-18_15h38.18.723,mlds_experiment_numerosity_triads,2025.1.1,MacIntel,57.47126437,275.052,282.433,right,6.85,,0,66,66,66,1,66,25,40,50,s_25_r_6.png,s_40_r_1.png,s_50_r_5.png,,
,,1,ch,2025-08-18_15h38.18.723,mlds_experiment_numerosity_triads,2025.1.1,MacIntel,57.47126437,282.435,285.933,left,2.965,,0,67,67,67,1,67,25,30,50,s_25_r_4.png,s_30_r_4.png,s_50_r_3.png,,
,,1,ch,2025-08-18_15h38.18.723,mlds_experiment_numerosity_triads,2025.1.1,MacIntel,57.47126437,285.934,297.484,left,11.015,,0,68,68,68,1,68,10,15,20,s_10_r_7.png,s_15_r_7.png,s_20_r_6.png,,
,,1,ch,2025-08-18_15h38.18.723,mlds_experiment_numerosity_triads,2025.1.1,MacIntel,57.47126437,297.487,301.867,left,3.841,,0,69,69,69,1,69,20,30,50,s_20_r_4.png,s_30_r_9.png,s_50_r_5.png,,
,,1,ch,2025-08-18_15h38.18.723,mlds_experiment_numerosity_triads,2025.1.1,MacIntel,57.47126437,301.869,304.733,right,2.321,,0,70,70,70,1,70,5,20,40,s_5_r_9.png,s_20_r_10.png,s_40_r_9.png,,
,,1,ch,2025-08-18_15h38.18.723,mlds_experiment_numerosity_triads,2025.1.1,MacIntel,57.47126437,304.735,307.383,right,2.115,,0,71,71,71,1,71,25,10,5,s_25_r_7.png,s_10_r_8.png,s_5_r_9.png,,
,,1,ch,2025-08-18_15h38.18.723,mlds_experiment_numerosity_triads,2025.1.1,MacIntel,57.47126437,307.386,311.784,left,3.864,,0,72,72,72,1,72,10,15,25,s_10_r_6.png,s_15_r_9.png,s_25_r_5.png,,
,,1,ch,2025-08-18_15h38.18.723,mlds_experiment_numerosity_triads,2025.1.1,MacIntel,57.47126437,311.785,314.883,right,2.563,,0,73,73,73,1,73,40,50,60,s_40_r_7.png,s_50_r_9.png,s_60_r_4.png,,
,,1,ch,2025-08-18_15h38.18.723,mlds_experiment_numerosity_triads,2025.1.1,MacIntel,57.47126437,314.886,317.466,right,2.044,,0,74,74,74,1,74,30,40,50,s_30_r_5.png,s_40_r_10.png,s_50_r_4.png,,
,,1,ch,2025-08-18_15h38.18.723,mlds_experiment_numerosity_triads,2025.1.1,MacIntel,57.47126437,317.468,321.383,right,3.38,,0,75,75,75,1,75,60,25,20,s_60_r_3.png,s_25_r_3.png,s_20_r_1.png,,
,,1,ch,2025-08-18_15h38.18.723,mlds_experiment_numerosity_triads,2025.1.1,MacIntel,57.47126437,321.385,323.95,right,2.027,,0,76,76,76,1,76,5,25,60,s_5_r_2.png,s_25_r_6.png,s_60_r_10.png,,
,,1,ch,2025-08-18_15h38.18.723,mlds_experiment_numerosity_triads,2025.1.1,MacIntel,57.47126437,323.952,326.25,right,1.761,,0,77,77,77,1,77,60,20,5,s_60_r_1.png,s_20_r_9.png,s_5_r_7.png,,
,,1,ch,2025-08-18_15h38.18.723,mlds_experiment_numerosity_triads,2025.1.1,MacIntel,57.47126437,326.251,328.999,right,2.219,,0,78,78,78,1,78,5,50,60,s_5_r_7.png,s_50_r_1.png,s_60_r_2.png,,
,,1,ch,2025-08-18_15h38.18.723,mlds_experiment_numerosity_triads,2025.1.1,MacIntel,57.47126437,329.002,333.101,right,3.573,,0,79,79,79,1,79,10,30,40,s_10_r_5.png,s_30_r_3.png,s_40_r_6.png,,
,,1,ch,2025-08-18_15h38.18.723,mlds_experiment_numerosity_triads,2025.1.1,MacIntel,57.47126437,333.105,335.75,left,2.117,,0,80,80,80,1,80,5,10,20,s_5_r_1.png,s_10_r_8.png,s_20_r_2.png,,
,,1,ch,2025-08-18_15h38.18.723,mlds_experiment_numerosity_triads,2025.1.1,MacIntel,57.47126437,335.751,338.117,right,1.83,,0,81,81,81,1,81,5,40,60,s_5_r_9.png,s_40_r_8.png,s_60_r_10.png,,
,,1,ch,2025-08-18_15h38.18.723,mlds_experiment_numerosity_triads,2025.1.1,MacIntel,57.47126437,338.118,341.867,left,3.21,,0,82,82,82,1,82,30,25,5,s_30_r_10.png,s_25_r_7.png,s_5_r_3.png,,
,,1,ch,2025-08-18_15h38.18.723,mlds_experiment_numerosity_triads,2025.1.1,MacIntel,57.47126437,341.868,343.583,right,1.195,,0,83,83,83,1,83,50,25,15,s_50_r_9.png,s_25_r_3.png,s_15_r_9.png,,
,,1,ch,2025-08-18_15h38.18.723,mlds_experiment_numerosity_triads,2025.1.1,MacIntel,57.47126437,,,,,,,,,,,,,,,,,,343.584,345.584
